Seconds.milliseconds since 1970,Queue size of CMController,Gyro X,Gyro Y,Gyro Z,Roll of the device,Pitch of the device,Yaw of the device,Quaternion X,Quaternion Y,Quaternion Z,Quaternion W,X-axis magnetic field in microteslas,Y-axis magnetic field in microteslas,Z-axis magnetic field in microteslas,Magnetic field accuracy (-1: not calibrated, 0: low, 1: medium, 2: high),Label used for the current sample
1352711975.003,0,0.048959,0.063928,-0.001190,-0.010231,0.530865,-2.522949,-0.075152,0.251376,0.919578,-0.292470,-19.709415,4.141485,-20.126118,2,0
1352711975.014,0,0.052607,0.020322,0.008229,-0.009979,0.531402,-2.522824,-0.075363,0.251581,0.919483,-0.292536,-19.709415,4.141485,-20.126118,2,0
1352711975.025,0,0.037520,-0.011392,0.040917,-0.010213,0.531876,-2.522460,-0.075371,0.251820,0.919380,-0.292654,-19.709415,4.141485,-20.126118,2,0
1352711975.035,0,0.031433,-0.012547,0.031069,-0.010543,0.532257,-2.522075,-0.075324,0.252028,0.919289,-0.292773,-19.681175,4.122501,-20.157623,2,0
1352711975.046,0,0.027727,-0.010133,0.031067,-0.010592,0.532536,-2.521814,-0.075376,0.252154,0.919218,-0.292876,-19.679510,4.119627,-20.159836,2,0
1352711975.057,0,0.027984,0.009435,0.000625,-0.010573,0.532842,-2.521741,-0.075439,0.252289,0.919168,-0.292898,-19.679510,4.119627,-20.159836,2,0
1352711975.067,0,0.028010,0.049394,-0.005130,-0.010036,0.533184,-2.521817,-0.075727,0.252370,0.919116,-0.292917,-19.679510,4.119627,-20.159836,2,0
1352711975.078,0,-0.000117,0.053354,0.000328,-0.009643,0.533413,-2.521779,-0.075946,0.252416,0.919067,-0.292974,-19.665735,4.105308,-20.176193,2,0
1352711975.089,0,-0.022587,0.080944,0.026169,-0.008971,0.533195,-2.521516,-0.076256,0.252208,0.919030,-0.293189,-19.665735,4.105308,-20.176193,2,0
1352711975.100,0,-0.018947,0.079692,0.033530,-0.008266,0.532949,-2.521092,-0.076597,0.251975,0.918972,-0.293483,-19.643152,4.111472,-20.196926,2,0
1352711975.110,0,-0.025016,0.068868,0.022368,-0.007647,0.532684,-2.520815,-0.076877,0.251752,0.918941,-0.293699,-19.643152,4.111472,-20.196926,2,0
1352711975.121,0,-0.016515,0.053042,0.039424,-0.007466,0.532371,-2.520271,-0.076982,0.251561,0.918893,-0.293985,-19.643152,4.111472,-20.196926,2,0
1352711975.132,0,-0.010312,0.072443,0.034741,-0.006935,0.532224,-2.519824,-0.077261,0.251398,0.918825,-0.294263,-19.595486,4.149120,-20.235495,2,0
1352711975.143,0,-0.010298,0.084556,0.032403,-0.006238,0.532118,-2.519406,-0.077618,0.251230,0.918750,-0.294547,-19.595486,4.149120,-20.235495,2,0
1352711975.153,0,-0.021646,0.081923,0.059258,-0.005685,0.531929,-2.518760,-0.077925,0.251037,0.918656,-0.294921,-19.595486,4.149120,-20.235495,2,0
1352711975.164,0,-0.029039,0.071033,0.057886,-0.004909,0.531457,-2.518213,-0.078280,0.250684,0.918604,-0.295289,-19.538427,4.183447,-20.283543,2,0
1352711975.175,0,-0.031471,0.079528,0.053049,-0.004437,0.531090,-2.517547,-0.078526,0.250420,0.918533,-0.295670,-19.506084,4.211863,-20.308773,2,0
1352711975.186,0,-0.061167,0.125399,0.056966,-0.003670,0.530615,-2.516817,-0.078899,0.250060,0.918454,-0.296121,-19.506084,4.211863,-20.308773,2,0
1352711975.196,0,-0.040369,0.176127,0.074713,-0.002462,0.529708,-2.515852,-0.079440,0.249426,0.918376,-0.296752,-19.506084,4.211863,-20.308773,2,0
1352711975.207,0,-0.041610,0.160396,0.075782,-0.000705,0.528931,-2.515142,-0.080219,0.248780,0.918297,-0.297328,-19.411057,4.288713,-20.383602,2,0
1352711975.218,0,-0.054052,0.096160,0.091030,0.000811,0.528537,-2.514430,-0.080945,0.248345,0.918179,-0.297859,-19.411057,4.288713,-20.383602,2,0
1352711975.229,0,-0.089670,0.033299,0.074302,0.001456,0.528106,-2.513752,-0.081261,0.248023,0.918105,-0.298268,-19.345646,4.325099,-20.438026,2,0
1352711975.239,0,-0.086631,0.011302,0.045419,0.001558,0.527413,-2.513203,-0.081273,0.247668,0.918105,-0.298560,-19.345646,4.325099,-20.438026,2,0
1352711975.250,0,-0.077942,0.025880,0.039482,0.001579,0.526651,-2.512752,-0.081225,0.247297,0.918132,-0.298800,-19.345646,4.325099,-20.438026,2,0
1352711975.261,0,-0.085451,0.026997,0.050470,0.001763,0.525589,-2.512249,-0.081212,0.246761,0.918180,-0.299096,-19.306353,4.391674,-20.460972,2,0
1352711975.272,0,-0.086749,-0.023877,0.061011,0.002067,0.524646,-2.511932,-0.081250,0.246270,0.918237,-0.299317,-19.306353,4.391674,-20.460972,2,0
1352711975.282,0,-0.047669,-0.041064,0.111310,0.001852,0.523909,-2.511061,-0.081149,0.245928,0.918206,-0.299719,-19.306353,4.391674,-20.460972,2,0
1352711975.293,0,-0.046560,-0.016947,0.123784,0.001507,0.523376,-2.509914,-0.081051,0.245688,0.918114,-0.300225,-19.276945,4.475986,-20.470428,2,0
1352711975.304,0,-0.058041,0.071085,0.160047,0.001606,0.523039,-2.508303,-0.081244,0.245454,0.917909,-0.300990,-19.254705,4.516930,-20.482363,2,0
1352711975.315,0,-0.083084,0.165153,0.192612,0.001889,0.522063,-2.505912,-0.081520,0.244865,0.917657,-0.302161,-19.254705,4.516930,-20.482363,2,0
1352711975.325,0,-0.141384,0.205956,0.219582,0.002493,0.520606,-2.503170,-0.081912,0.243994,0.917396,-0.303550,-19.254705,4.516930,-20.482363,2,0
1352711975.336,0,-0.198559,0.235781,0.259932,0.003199,0.518550,-2.500005,-0.082309,0.242813,0.917136,-0.305169,-19.121998,4.718806,-20.561020,2,0
1352711975.347,0,-0.151335,0.225468,0.366696,0.003616,0.516714,-2.495844,-0.082724,0.241735,0.916705,-0.307201,-19.121998,4.718806,-20.561020,2,0
1352711975.358,0,-0.004117,0.214156,0.476514,0.003210,0.516264,-2.490267,-0.083142,0.241361,0.915917,-0.309724,-19.023634,4.877022,-20.615273,2,0
1352711975.368,0,0.149383,0.264668,0.569792,0.002484,0.517509,-2.483424,-0.083830,0.241758,0.914731,-0.312718,-19.023634,4.877022,-20.615273,2,0
1352711975.379,0,0.289958,0.395548,0.582886,0.002810,0.520256,-2.476181,-0.085287,0.242656,0.913245,-0.315955,-19.023634,4.877022,-20.615273,2,0
1352711975.390,0,0.370513,0.434695,0.546993,0.003992,0.524137,-2.469319,-0.087275,0.243943,0.911631,-0.319068,-18.753040,5.127609,-20.801552,2,0
1352711975.401,0,0.324623,0.481627,0.566744,0.005517,0.527819,-2.462359,-0.089409,0.245069,0.909994,-0.322269,-18.753040,5.127609,-20.801552,2,0
1352711975.411,0,0.206039,0.615657,0.562356,0.008250,0.530350,-2.455389,-0.091914,0.245462,0.908428,-0.325667,-18.753040,5.127609,-20.801552,2,0
1352711975.422,0,0.112875,0.706981,0.618976,0.011881,0.531868,-2.447929,-0.094723,0.245209,0.906848,-0.329433,-18.326572,5.252554,-21.147598,2,0
1352711975.433,0,0.036160,0.658268,0.640106,0.015203,0.532536,-2.439938,-0.097317,0.244577,0.905281,-0.333433,-18.034742,5.393641,-21.361885,2,0
1352711975.444,0,-0.080283,0.460202,0.555491,0.017021,0.532136,-2.432780,-0.098946,0.243740,0.904042,-0.336909,-18.034742,5.393641,-21.361885,2,0
1352711975.454,0,-0.238812,0.366039,0.475254,0.017890,0.530072,-2.426567,-0.099749,0.242351,0.903205,-0.339908,-18.034742,5.393641,-21.361885,2,0
1352711975.465,0,-0.348225,0.485984,0.411994,0.019957,0.526655,-2.421202,-0.100754,0.240183,0.902609,-0.342721,-17.612654,5.789732,-21.608955,2,0
1352711975.476,0,-0.399801,0.656736,0.367932,0.024184,0.522575,-2.416411,-0.102542,0.237368,0.902072,-0.345554,-17.612654,5.789732,-21.608955,2,0
1352711975.487,0,-0.434516,0.770308,0.376118,0.029808,0.518089,-2.411676,-0.104872,0.234118,0.901508,-0.348530,-17.612654,5.789732,-21.608955,2,0
1352711975.497,0,-0.431405,0.913863,0.433811,0.036612,0.513548,-2.406351,-0.107779,0.230590,0.900768,-0.351893,-17.064926,6.288089,-21.907116,2,0
1352711975.508,0,-0.401068,1.011544,0.487571,0.044443,0.509309,-2.400381,-0.111258,0.226962,0.899798,-0.355631,-17.064926,6.288089,-21.907116,2,0
1352711975.519,0,-0.369347,0.988318,0.532874,0.051958,0.505525,-2.393727,-0.114731,0.223533,0.898642,-0.359601,-16.672781,6.561165,-22.127876,2,0
1352711975.530,0,-0.313988,0.891462,0.562942,0.058407,0.502302,-2.386680,-0.117847,0.220502,0.897382,-0.363588,-16.672781,6.561165,-22.127876,2,0
1352711975.540,0,-0.227284,0.808369,0.538206,0.064008,0.499966,-2.379776,-0.120704,0.218013,0.896068,-0.367372,-16.672781,6.561165,-22.127876,2,0
1352711975.551,0,-0.123759,0.595769,0.462842,0.068193,0.498642,-2.373725,-0.123001,0.216275,0.894857,-0.370577,-15.893903,7.076432,-22.538445,2,0
1352711975.562,0,0.002572,0.287520,0.300300,0.070073,0.498558,-2.369467,-0.124287,0.215625,0.893959,-0.372687,-15.627745,7.237691,-22.672955,2,0
1352711975.573,0,0.103081,0.096462,-0.023011,0.071045,0.499440,-2.368843,-0.124946,0.215802,0.893676,-0.373044,-15.627745,7.237691,-22.672955,2,0
1352711975.583,0,0.155622,0.147911,-0.100598,0.070976,0.502562,-2.369080,-0.125446,0.217235,0.893346,-0.372835,-15.627745,7.237691,-22.672955,2,0
1352711975.594,0,0.119255,0.137472,-0.176864,0.073501,0.503809,-2.371108,-0.126575,0.217453,0.893413,-0.372165,-15.538637,7.154006,-22.760588,2,0
1352711975.605,0,0.166714,0.200941,-0.242135,0.076786,0.505306,-2.374017,-0.127991,0.217702,0.893561,-0.371178,-15.538637,7.154006,-22.760588,2,0
1352711975.616,0,0.147064,0.347420,-0.264176,0.081770,0.506823,-2.377390,-0.130118,0.217679,0.893677,-0.370169,-15.502994,7.048619,-22.817705,2,0
1352711975.626,0,0.030543,0.475062,-0.219611,0.087663,0.508508,-2.380118,-0.132750,0.217528,0.893586,-0.369545,-15.502994,7.048619,-22.817705,2,0
1352711975.637,0,-0.061488,0.620768,-0.155132,0.094933,0.507903,-2.382162,-0.135671,0.216050,0.893551,-0.369435,-15.502994,7.048619,-22.817705,2,0
1352711975.648,0,-0.081776,0.706227,-0.100570,0.102908,0.506886,-2.383413,-0.138923,0.214203,0.893362,-0.369759,-15.225226,6.869641,-23.058056,2,0
1352711975.658,0,-0.090542,0.712161,-0.087094,0.111057,0.505847,-2.384346,-0.142283,0.212292,0.893092,-0.370235,-15.225226,6.869641,-23.058056,2,0
1352711975.669,0,-0.114845,0.722098,-0.132474,0.119362,0.504530,-2.385665,-0.145626,0.210253,0.892905,-0.370549,-15.225226,6.869641,-23.058056,2,0
1352711975.680,0,-0.118357,0.773073,-0.157749,0.128315,0.503048,-2.387316,-0.149196,0.208046,0.892739,-0.370775,-14.720875,6.888892,-23.377605,2,0
1352711975.691,0,-0.138917,0.837511,-0.211177,0.138201,0.501438,-2.389500,-0.153110,0.205649,0.892602,-0.370848,-14.445676,6.895339,-23.546766,2,0
1352711975.701,0,-0.233692,0.918620,-0.251432,0.149079,0.498833,-2.392090,-0.157260,0.202654,0.892570,-0.370836,-14.445676,6.895339,-23.546766,2,0
1352711975.712,0,-0.298148,1.032038,-0.231180,0.160999,0.495440,-2.394417,-0.161776,0.199091,0.892485,-0.371028,-14.445676,6.895339,-23.546766,2,0
1352711975.723,0,-0.319339,1.057246,-0.210253,0.173297,0.491671,-2.396372,-0.166443,0.195259,0.892321,-0.371394,-13.770211,6.973585,-23.925381,2,0
1352711975.734,0,-0.271119,0.960589,-0.210850,0.184812,0.488255,-2.398248,-0.170833,0.191727,0.892137,-0.371683,-13.770211,6.973585,-23.925381,2,0
1352711975.744,0,-0.220467,0.856644,-0.206600,0.195212,0.485397,-2.400234,-0.174813,0.188668,0.891975,-0.371788,-13.402014,7.042700,-24.113480,2,0
1352711975.755,0,-0.201023,0.823765,-0.168812,0.204842,0.482875,-2.401907,-0.178538,0.185878,0.891760,-0.371938,-13.402014,7.042700,-24.113480,2,0
1352711975.766,0,-0.230125,0.875181,-0.092568,0.214467,0.480331,-2.402649,-0.182345,0.182997,0.891357,-0.372484,-13.402014,7.042700,-24.113480,2,0
1352711975.777,0,-0.311778,0.888180,-0.075799,0.224126,0.477118,-2.402817,-0.186113,0.179750,0.890914,-0.373262,-12.770232,7.141927,-24.425140,2,0
1352711975.787,0,-0.381978,0.844595,-0.093780,0.233404,0.473049,-2.402835,-0.189585,0.176167,0.890571,-0.374041,-12.770232,7.141927,-24.425140,2,0
1352711975.798,0,-0.397595,0.663368,-0.131073,0.241187,0.468566,-2.403109,-0.192303,0.172695,0.890456,-0.374544,-12.770232,7.141927,-24.425140,2,0
1352711975.809,0,-0.372409,0.416924,-0.169944,0.246675,0.464230,-2.403909,-0.193980,0.169770,0.890632,-0.374598,-12.141590,7.382969,-24.672798,2,0
1352711975.820,0,-0.323678,0.234745,-0.222776,0.250321,0.460178,-2.405340,-0.194832,0.167380,0.891064,-0.374206,-11.992516,7.495346,-24.711794,2,0
1352711975.830,0,-0.280626,0.079801,-0.193320,0.252188,0.456583,-2.406782,-0.194967,0.165533,0.891608,-0.373659,-11.992516,7.495346,-24.711794,2,0
1352711975.841,0,-0.243929,-0.015998,-0.147432,0.252655,0.453537,-2.407925,-0.194594,0.164168,0.892161,-0.373137,-11.992516,7.495346,-24.711794,2,0
1352711975.852,0,-0.165358,-0.063378,-0.092265,0.252463,0.451302,-2.408595,-0.194095,0.163248,0.892586,-0.372783,-11.978895,7.641941,-24.673471,2,0
1352711975.863,0,-0.047334,-0.136130,-0.028517,0.251340,0.450362,-2.408881,-0.193420,0.163057,0.892866,-0.372547,-11.978895,7.641941,-24.673471,2,0
1352711975.873,0,0.054771,-0.229386,0.021470,0.249027,0.450672,-2.408871,-0.192438,0.163628,0.893048,-0.372368,-12.025555,7.672944,-24.641132,2,0
1352711975.884,0,0.080447,-0.205324,0.048798,0.246576,0.451594,-2.408621,-0.191512,0.164481,0.893122,-0.372294,-12.025555,7.672944,-24.641132,2,0
1352711975.895,0,0.051746,-0.125753,0.077531,0.244740,0.452434,-2.407985,-0.190879,0.165145,0.893074,-0.372440,-12.025555,7.672944,-24.641132,2,0
1352711975.906,0,-0.017355,-0.064152,0.067877,0.243471,0.452620,-2.407149,-0.190412,0.165387,0.893016,-0.372711,-12.168474,7.643996,-24.579891,2,0
1352711975.916,0,-0.098535,-0.033832,0.029687,0.242761,0.451912,-2.406474,-0.190036,0.165132,0.893046,-0.372943,-12.168474,7.643996,-24.579891,2,0
1352711975.927,0,-0.147837,-0.045984,0.020700,0.241769,0.450788,-2.405699,-0.189476,0.164731,0.893136,-0.373190,-12.168474,7.643996,-24.579891,2,0
1352711975.938,0,-0.157591,-0.085846,0.009247,0.240705,0.449173,-2.405120,-0.188787,0.164138,0.893329,-0.373338,-12.204667,7.714890,-24.539764,2,0
1352711975.949,0,-0.135363,-0.057958,0.007191,0.239748,0.447732,-2.404649,-0.188165,0.163614,0.893510,-0.373448,-12.234236,7.777226,-24.505341,2,0
1352711975.959,0,-0.182278,0.013344,0.001438,0.239472,0.446036,-2.404188,-0.187804,0.162849,0.893660,-0.373607,-12.234236,7.777226,-24.505341,2,0
1352711975.970,0,-0.250364,0.113508,0.014191,0.240739,0.443674,-2.403649,-0.188031,0.161483,0.893731,-0.373915,-12.234236,7.777226,-24.505341,2,0
1352711975.981,0,-0.254186,0.159396,0.024390,0.241894,0.440985,-2.402696,-0.188187,0.159950,0.893774,-0.374392,-12.189632,7.932501,-24.477779,2,0
1352711975.992,0,-0.067911,0.191150,0.042973,0.243594,0.439815,-2.401944,-0.188816,0.159027,0.893616,-0.374845,-12.189632,7.932501,-24.477779,2,0
1352711976.002,0,0.063962,0.138006,0.075139,0.244948,0.440370,-2.401291,-0.189564,0.158965,0.893298,-0.375254,-12.115133,8.003932,-24.491510,2,0
1352711976.013,0,0.134128,0.055700,0.105432,0.245502,0.441916,-2.400575,-0.190119,0.159498,0.892921,-0.375642,-12.115133,8.003932,-24.491510,2,0
1352711976.024,0,0.089711,0.018084,0.106044,0.244675,0.444324,-2.399347,-0.190241,0.160635,0.892472,-0.376163,-12.115133,8.003932,-24.491510,2,0
1352711976.035,0,0.030634,0.038675,0.082598,0.244655,0.445035,-2.398455,-0.190420,0.160878,0.892218,-0.376571,-12.034513,7.951210,-24.548365,2,0
1352711976.045,0,0.004817,0.015711,0.071203,0.244570,0.445357,-2.397624,-0.190501,0.160962,0.892030,-0.376940,-12.034513,7.951210,-24.548365,2,0
1352711976.056,0,0.007156,0.048289,0.083768,0.244525,0.445623,-2.396708,-0.190599,0.161004,0.891829,-0.377348,-12.034513,7.951210,-24.548365,2,0
1352711976.067,0,0.001993,0.106199,0.105092,0.245408,0.445840,-2.395743,-0.191105,0.160844,0.891535,-0.377853,-11.989412,7.965981,-24.565639,2,0
1352711976.078,0,0.010599,0.160650,0.105648,0.246477,0.446193,-2.394554,-0.191735,0.160689,0.891164,-0.378475,-11.928190,7.982818,-24.589966,2,0
1352711976.088,0,0.017944,0.206606,0.109792,0.248053,0.446640,-2.393407,-0.192603,0.160484,0.890740,-0.379119,-11.928190,7.982818,-24.589966,2,0
1352711976.099,0,0.022510,0.232945,0.150487,0.249888,0.447232,-2.391890,-0.193638,0.160259,0.890201,-0.379951,-11.928190,7.982818,-24.589966,2,0
1352711976.110,0,0.052935,0.293214,0.194090,0.253324,0.446781,-2.390448,-0.195209,0.159260,0.889649,-0.380860,-11.707304,8.035527,-24.678793,2,0
1352711976.121,0,0.087566,0.254611,0.190270,0.255371,0.448139,-2.388451,-0.196501,0.159292,0.888898,-0.381934,-11.707304,8.035527,-24.678793,2,0
1352711976.131,0,0.122262,0.151917,0.183410,0.256529,0.449851,-2.386685,-0.197438,0.159675,0.888231,-0.382841,-11.571319,8.043625,-24.740211,2,0
1352711976.142,0,0.076652,0.055064,0.182228,0.257706,0.451846,-2.385369,-0.198396,0.160226,0.887611,-0.383553,-11.571319,8.043625,-24.740211,2,0
1352711976.153,0,0.007736,0.035724,0.157128,0.257281,0.452544,-2.383533,-0.198469,0.160443,0.887213,-0.384346,-11.571319,8.043625,-24.740211,2,0
1352711976.164,0,-0.063757,0.062283,0.141011,0.257087,0.452439,-2.381737,-0.198510,0.160254,0.886900,-0.385125,-11.427553,8.027944,-24.812025,2,0
1352711976.174,0,-0.100286,0.067449,0.082037,0.257213,0.451822,-2.380323,-0.198576,0.159809,0.886693,-0.385752,-11.427553,8.027944,-24.812025,2,0
1352711976.185,0,-0.118494,0.030120,0.049739,0.256349,0.451073,-2.378930,-0.198180,0.159498,0.886604,-0.386288,-11.427553,8.027944,-24.812025,2,0
1352711976.196,0,-0.100846,-0.010701,0.011497,0.256066,0.449989,-2.378336,-0.197921,0.159002,0.886654,-0.386511,-11.371468,8.130733,-24.804321,2,0
1352711976.207,0,-0.049996,-0.026139,-0.012833,0.255739,0.449290,-2.378217,-0.197669,0.158736,0.886751,-0.386526,-11.373491,8.173590,-24.789303,2,0
1352711976.217,0,-0.001761,-0.033226,-0.021178,0.255528,0.449083,-2.378433,-0.197523,0.158704,0.886840,-0.386410,-11.373491,8.173590,-24.789303,2,0
1352711976.228,0,0.035069,-0.036949,0.002294,0.254201,0.448830,-2.378149,-0.196916,0.158817,0.886948,-0.386426,-11.373491,8.173590,-24.789303,2,0
1352711976.239,0,0.067034,-0.069664,0.020562,0.253532,0.449491,-2.378093,-0.196734,0.159241,0.886920,-0.386408,-11.421219,8.184793,-24.763649,2,0
1352711976.249,0,0.097145,-0.155143,-0.027816,0.252262,0.450350,-2.378500,-0.196281,0.159916,0.887015,-0.386140,-11.421219,8.184793,-24.763649,2,0
1352711976.260,0,0.111068,-0.203270,-0.062465,0.249646,0.451672,-2.379024,-0.195300,0.161073,0.887206,-0.385718,-11.466555,8.152693,-24.753286,2,0
1352711976.271,0,0.104938,-0.188725,-0.068494,0.248061,0.452580,-2.380171,-0.194656,0.161902,0.887468,-0.385095,-11.466555,8.152693,-24.753286,2,0
1352711976.282,0,0.088599,-0.130899,-0.039886,0.246860,0.453450,-2.380938,-0.194206,0.162603,0.887623,-0.384670,-11.466555,8.152693,-24.753286,2,0
1352711976.292,0,0.045347,-0.093508,-0.038580,0.246047,0.453944,-2.381551,-0.193877,0.163043,0.887757,-0.384338,-11.637470,8.049301,-24.707317,2,0
1352711976.303,0,0.024490,-0.084995,-0.054545,0.244306,0.454061,-2.381731,-0.193109,0.163448,0.887945,-0.384118,-11.637470,8.049301,-24.707317,2,0
1352711976.314,0,0.031935,-0.076476,-0.059320,0.243749,0.454164,-2.382453,-0.192819,0.163671,0.888125,-0.383753,-11.637470,8.049301,-24.707317,2,0
1352711976.325,0,0.086118,-0.082521,-0.041895,0.243200,0.454779,-2.383208,-0.192616,0.164128,0.888245,-0.383381,-11.739922,8.010611,-24.671394,2,0
1352711976.335,0,0.089640,-0.116544,-0.018914,0.242304,0.455667,-2.383738,-0.192323,0.164755,0.888321,-0.383084,-11.779271,7.971930,-24.665169,2,0
1352711976.346,0,0.093179,-0.128754,-0.000635,0.241480,0.455979,-2.384247,-0.191966,0.165103,0.888458,-0.382794,-11.779271,7.971930,-24.665169,2,0
1352711976.357,0,0.105271,-0.150713,0.029860,0.239928,0.457083,-2.384309,-0.191455,0.165908,0.888480,-0.382652,-11.779271,7.971930,-24.665169,2,0
1352711976.368,0,0.179311,-0.179626,0.037395,0.238075,0.458837,-2.384264,-0.190927,0.167054,0.888427,-0.382539,-11.880973,7.905050,-24.637899,2,0
1352711976.378,0,0.250164,-0.232350,-0.014095,0.234599,0.460487,-2.384303,-0.189654,0.168472,0.888557,-0.382250,-11.880973,7.905050,-24.637899,2,0
1352711976.389,0,0.265380,-0.233208,-0.059333,0.232633,0.463167,-2.385604,-0.189116,0.170188,0.888652,-0.381534,-11.880973,7.905050,-24.637899,2,0
1352711976.400,0,0.205154,-0.179875,-0.094733,0.231253,0.465286,-2.387258,-0.188712,0.171569,0.888829,-0.380703,-12.084841,7.733952,-24.593010,2,0
1352711976.411,0,0.143497,-0.108547,-0.109152,0.230638,0.466664,-2.388917,-0.188524,0.172469,0.889027,-0.379926,-12.084841,7.733952,-24.593010,2,0
1352711976.421,0,0.100485,-0.079435,-0.136093,0.230116,0.466776,-2.390478,-0.188176,0.172766,0.889358,-0.379188,-12.154651,7.645682,-24.586205,2,0
1352711976.432,0,0.131400,-0.084168,-0.140847,0.230104,0.467659,-2.392474,-0.188143,0.173357,0.889625,-0.378308,-12.154651,7.645682,-24.586205,2,0
1352711976.443,0,0.169384,-0.097627,-0.106440,0.229917,0.469075,-2.394253,-0.188138,0.174203,0.889798,-0.377514,-12.154651,7.645682,-24.586205,2,0
1352711976.454,0,0.192872,-0.138699,-0.106676,0.229322,0.470776,-2.395973,-0.188002,0.175251,0.889960,-0.376714,-12.262470,7.511382,-24.574059,2,0
1352711976.464,0,0.216115,-0.212624,-0.079047,0.228276,0.471846,-2.397674,-0.187561,0.176094,0.890241,-0.375875,-12.327129,7.433023,-24.565536,2,0
1352711976.475,0,0.207296,-0.239409,-0.057299,0.226359,0.473890,-2.398982,-0.186925,0.177506,0.890404,-0.375142,-12.327129,7.433023,-24.565536,2,0
1352711976.486,0,0.195003,-0.240604,-0.063511,0.224362,0.475837,-2.400241,-0.186241,0.178883,0.890575,-0.374420,-12.327129,7.433023,-24.565536,2,0
1352711976.497,0,0.160616,-0.284105,-0.082495,0.221718,0.477142,-2.401474,-0.185165,0.180085,0.890883,-0.373644,-12.530163,7.245582,-24.518768,2,0
1352711976.507,0,0.080516,-0.263588,-0.102395,0.219492,0.477985,-2.402917,-0.184180,0.181018,0.891250,-0.372806,-12.530163,7.245582,-24.518768,2,0
1352711976.518,0,-0.014704,-0.209459,-0.090229,0.217533,0.477857,-2.404058,-0.183182,0.181429,0.891658,-0.372119,-12.530163,7.245582,-24.518768,2,0
1352711976.529,0,-0.104142,-0.086643,-0.038194,0.216482,0.476865,-2.404499,-0.182513,0.181213,0.891964,-0.371821,-12.745787,7.175073,-24.428196,2,0
1352711976.540,0,-0.141740,0.012107,0.015148,0.217313,0.474078,-2.404632,-0.182420,0.179802,0.892270,-0.371817,-12.745787,7.175073,-24.428196,2,0
1352711976.550,0,-0.078035,0.054212,0.069824,0.217312,0.473173,-2.403623,-0.182363,0.179299,0.892198,-0.372261,-12.744978,7.242824,-24.408615,2,0
1352711976.561,0,0.020540,0.005566,0.111975,0.217095,0.473378,-2.402457,-0.182404,0.179326,0.891975,-0.372763,-12.744978,7.242824,-24.408615,2,0
1352711976.572,0,0.084690,-0.022168,0.120686,0.216413,0.474363,-2.401285,-0.182366,0.179795,0.891692,-0.373231,-12.744978,7.242824,-24.408615,2,0
1352711976.583,0,0.141485,-0.048676,0.122022,0.214092,0.475470,-2.399496,-0.181673,0.180569,0.891428,-0.373826,-12.708061,7.289452,-24.413982,2,0
1352711976.593,0,0.165968,-0.037896,0.145545,0.213043,0.477455,-2.398280,-0.181640,0.181557,0.891041,-0.374284,-12.733658,7.282973,-24.402576,2,0
1352711976.604,0,0.218658,0.033308,0.186949,0.212421,0.480030,-2.396648,-0.181934,0.182696,0.890461,-0.374968,-12.733658,7.282973,-24.402576,2,0
1352711976.615,0,0.266237,0.164897,0.241124,0.213088,0.481752,-2.394695,-0.182692,0.183175,0.889812,-0.375907,-12.733658,7.282973,-24.402576,2,0
1352711976.626,0,0.279675,0.219274,0.253958,0.214315,0.485302,-2.392435,-0.184029,0.184348,0.888813,-0.377041,-12.625656,7.215268,-24.478687,2,0
1352711976.636,0,0.214184,0.180358,0.261772,0.215246,0.488374,-2.389948,-0.185179,0.185337,0.887857,-0.378245,-12.625656,7.215268,-24.478687,2,0
1352711976.647,0,0.054031,0.073779,0.226733,0.215130,0.489946,-2.387338,-0.185629,0.185829,0.887167,-0.379400,-12.515487,7.168703,-24.548843,2,0
1352711976.658,0,-0.041907,-0.030225,0.190887,0.213898,0.490147,-2.384914,-0.185342,0.185930,0.886794,-0.380361,-12.515487,7.168703,-24.548843,2,0
1352711976.669,0,-0.026086,-0.107836,0.222120,0.210816,0.490066,-2.381868,-0.184245,0.186198,0.886510,-0.381424,-12.515487,7.168703,-24.548843,2,0
1352711976.679,0,0.123224,-0.112411,0.234017,0.208588,0.491542,-2.379264,-0.183748,0.187052,0.886024,-0.382374,-12.478142,7.256720,-24.541992,2,0
1352711976.690,0,0.154543,-0.156761,0.186026,0.206053,0.493608,-2.377301,-0.183156,0.188292,0.885610,-0.383008,-12.478142,7.256720,-24.541992,2,0
1352711976.701,0,0.067208,-0.137333,0.146472,0.203684,0.494922,-2.375624,-0.182487,0.189187,0.885332,-0.383528,-12.478142,7.256720,-24.541992,2,0
1352711976.712,0,-0.004089,-0.113039,0.108287,0.201764,0.495265,-2.374263,-0.181824,0.189586,0.885201,-0.383949,-12.534380,7.247750,-24.515972,2,0
1352711976.722,0,-0.003941,-0.149238,0.094482,0.199276,0.495707,-2.372856,-0.180931,0.190136,0.885099,-0.384334,-12.575743,7.265912,-24.489399,2,0
1352711976.733,0,0.067533,-0.101986,0.107605,0.197403,0.496322,-2.371729,-0.180314,0.190672,0.884970,-0.384654,-12.575743,7.265912,-24.489399,2,0
1352711976.744,0,0.216478,-0.028186,0.155747,0.196379,0.498507,-2.370448,-0.180354,0.191740,0.884529,-0.385119,-12.575743,7.265912,-24.489399,2,0
1352711976.755,0,0.300159,0.069811,0.181664,0.196096,0.501917,-2.368972,-0.180952,0.193200,0.883820,-0.385736,-12.607260,7.224754,-24.485371,2,0
1352711976.765,0,0.221345,0.194428,0.151715,0.196775,0.506516,-2.367426,-0.182186,0.195002,0.882849,-0.386472,-12.607260,7.224754,-24.485371,2,0
1352711976.776,0,0.114216,0.286396,0.111484,0.199192,0.508240,-2.366269,-0.183659,0.195205,0.882174,-0.387213,-12.540115,7.121370,-24.550053,2,0
1352711976.787,0,0.036664,0.302141,0.082981,0.201888,0.508992,-2.365325,-0.185068,0.194935,0.881641,-0.387890,-12.540115,7.121370,-24.550053,2,0
1352711976.798,0,0.000823,0.288719,0.087537,0.204616,0.509248,-2.364291,-0.186415,0.194424,0.881153,-0.388611,-12.540115,7.121370,-24.550053,2,0
1352711976.808,0,0.003578,0.200604,0.061017,0.206635,0.509412,-2.363492,-0.187409,0.194031,0.880787,-0.389159,-12.286610,7.108995,-24.681469,2,0
1352711976.819,0,0.006534,0.105369,0.013613,0.207129,0.510302,-2.362876,-0.187839,0.194278,0.880500,-0.389477,-12.286610,7.108995,-24.681469,2,0
1352711976.830,0,-0.062209,0.068014,-0.030026,0.207954,0.509845,-2.363003,-0.188111,0.193923,0.880509,-0.389501,-12.286610,7.108995,-24.681469,2,0
1352711976.840,0,-0.142036,0.035498,-0.077363,0.208626,0.508404,-2.363494,-0.188114,0.193190,0.880736,-0.389352,-12.179917,7.115208,-24.732506,2,0
1352711976.851,0,-0.174952,0.017600,-0.124276,0.209012,0.506356,-2.364247,-0.187863,0.192263,0.881122,-0.389058,-12.173508,7.154923,-24.724201,2,0
1352711976.862,0,-0.131684,-0.027040,-0.126873,0.209347,0.504566,-2.365367,-0.187598,0.191496,0.881549,-0.388598,-12.173508,7.154923,-24.724201,2,0
1352711976.873,0,-0.104569,-0.034278,-0.120650,0.209584,0.503156,-2.366553,-0.187350,0.190926,0.881945,-0.388097,-12.173508,7.154923,-24.724201,2,0
1352711976.883,0,-0.084556,-0.078808,-0.146662,0.209610,0.501926,-2.368015,-0.187013,0.190504,0.882391,-0.387455,-12.225352,7.210149,-24.682543,2,0
1352711976.894,0,-0.075534,-0.109938,-0.188549,0.210053,0.500140,-2.370243,-0.186694,0.189820,0.883018,-0.386513,-12.225352,7.210149,-24.682543,2,0
1352711976.905,0,-0.041093,-0.122067,-0.172526,0.209678,0.499201,-2.372236,-0.186180,0.189655,0.883563,-0.385596,-12.273415,7.216784,-24.656738,2,0
1352711976.916,0,0.020388,-0.142703,-0.141716,0.209048,0.498947,-2.374002,-0.185692,0.189825,0.883995,-0.384756,-12.273415,7.216784,-24.656738,2,0
1352711976.926,0,0.086940,-0.181378,-0.124516,0.207944,0.499369,-2.375739,-0.185109,0.190389,0.884376,-0.383883,-12.273415,7.216784,-24.656738,2,0
1352711976.937,0,0.131142,-0.203222,-0.097511,0.207876,0.498821,-2.377916,-0.184780,0.190356,0.884872,-0.382913,-12.425289,7.150455,-24.599932,2,0
1352711976.948,0,0.172791,-0.188868,-0.060375,0.206406,0.500366,-2.379204,-0.184266,0.191454,0.885049,-0.382204,-12.425289,7.150455,-24.599932,2,0
1352711976.959,0,0.163708,-0.144459,-0.013472,0.205044,0.502094,-2.379922,-0.183883,0.192561,0.885082,-0.381756,-12.425289,7.150455,-24.599932,2,0
1352711976.969,0,0.137209,-0.102605,0.047996,0.204305,0.503595,-2.380127,-0.183787,0.193399,0.884989,-0.381594,-12.567439,7.028504,-24.562840,2,0
1352711976.980,0,0.128263,-0.067770,0.080112,0.203175,0.505150,-2.379576,-0.183601,0.194267,0.884779,-0.381728,-12.596880,6.979553,-24.561716,2,0
1352711976.991,0,0.134019,-0.057195,0.126793,0.202020,0.506780,-2.378499,-0.183468,0.195126,0.884462,-0.382090,-12.596880,6.979553,-24.561716,2,0
1352711977.002,0,0.122553,-0.045399,0.166030,0.200742,0.508424,-2.376939,-0.183331,0.195969,0.884060,-0.382653,-12.596880,6.979553,-24.561716,2,0
1352711977.012,0,0.140479,-0.026453,0.231233,0.199754,0.509630,-2.374905,-0.183297,0.196516,0.883600,-0.383452,-12.607895,6.933582,-24.569084,2,0
1352711977.023,0,0.129061,0.026530,0.262275,0.198471,0.511553,-2.372095,-0.183331,0.197372,0.882919,-0.384562,-12.607895,6.933582,-24.569084,2,0
1352711977.034,0,0.141187,0.114729,0.281539,0.198002,0.513602,-2.369076,-0.183770,0.198109,0.882104,-0.385841,-12.575526,6.942592,-24.583124,2,0
1352711977.045,0,0.130393,0.136743,0.243703,0.198062,0.515551,-2.366281,-0.184405,0.198718,0.881295,-0.387073,-12.575526,6.942592,-24.583124,2,0
1352711977.055,0,0.056108,0.115581,0.127920,0.196644,0.517082,-2.363579,-0.184310,0.199433,0.880694,-0.388116,-12.575526,6.942592,-24.583124,2,0
1352711977.066,0,-0.011813,0.065799,0.131944,0.196680,0.517365,-2.362102,-0.184522,0.199417,0.880366,-0.388768,-12.459333,6.949565,-24.640251,2,0
1352711977.077,0,-0.006564,0.070897,0.096500,0.196836,0.517405,-2.360787,-0.184728,0.199283,0.880090,-0.389362,-12.459333,6.949565,-24.640251,2,0
1352711977.088,0,0.005737,0.022478,0.104704,0.196373,0.517469,-2.359440,-0.184670,0.199277,0.879862,-0.389909,-12.459333,6.949565,-24.640251,2,0
1352711977.098,0,-0.010371,0.057494,0.108603,0.196208,0.517635,-2.358094,-0.184760,0.199260,0.879592,-0.390483,-12.390415,7.002307,-24.660065,2,0
1352711977.109,0,-0.047398,0.114303,0.102776,0.196572,0.517493,-2.356690,-0.185036,0.198995,0.879303,-0.391138,-12.354489,7.029160,-24.670448,2,0
1352711977.120,0,-0.101510,0.128874,0.076856,0.197324,0.516767,-2.355476,-0.185361,0.198409,0.879094,-0.391750,-12.354489,7.029160,-24.670448,2,0
1352711977.131,0,-0.195087,0.117943,0.049246,0.196488,0.516240,-2.353568,-0.185092,0.198160,0.878869,-0.392508,-12.354489,7.029160,-24.670448,2,0
1352711977.141,0,-0.223126,0.095170,0.009667,0.197198,0.513974,-2.352764,-0.185091,0.196929,0.878952,-0.392942,-12.266318,7.146404,-24.680758,2,0
1352711977.152,0,-0.206786,0.051867,-0.020033,0.197718,0.511697,-2.352400,-0.184960,0.195770,0.879139,-0.393164,-12.266318,7.146404,-24.680758,2,0
1352711977.163,0,-0.194260,-0.004844,-0.036404,0.197808,0.509580,-2.352330,-0.184639,0.194795,0.879402,-0.393212,-12.237046,7.231606,-24.670469,2,0
1352711977.174,0,-0.160831,-0.036166,-0.045060,0.196910,0.507381,-2.352137,-0.183881,0.193966,0.879741,-0.393219,-12.237046,7.231606,-24.670469,2,0
1352711977.184,0,-0.127367,-0.029940,-0.059496,0.196738,0.505819,-2.352473,-0.183501,0.193328,0.880031,-0.393060,-12.237046,7.231606,-24.670469,2,0
1352711977.195,0,-0.091453,-0.028562,-0.071513,0.196715,0.504631,-2.353114,-0.183222,0.192857,0.880317,-0.392781,-12.270962,7.358454,-24.616055,2,0
1352711977.206,0,-0.086479,0.021093,-0.079595,0.196544,0.503163,-2.353611,-0.182844,0.192276,0.880626,-0.392551,-12.270962,7.358454,-24.616055,2,0
1352711977.217,0,-0.079425,0.099494,-0.044530,0.197610,0.502190,-2.354048,-0.183103,0.191670,0.880743,-0.392464,-12.270962,7.358454,-24.616055,2,0
1352711977.227,0,-0.077299,0.128273,-0.007502,0.198927,0.501342,-2.354056,-0.183535,0.191031,0.880736,-0.392590,-12.283456,7.414032,-24.593136,2,0
1352711977.238,0,-0.039123,0.134330,0.003812,0.200349,0.500808,-2.353970,-0.184077,0.190503,0.880659,-0.392765,-12.234571,7.439764,-24.609726,2,0
1352711977.249,0,-0.011373,0.147226,0.073912,0.202583,0.499205,-2.353766,-0.184801,0.189324,0.880625,-0.393070,-12.234571,7.439764,-24.609726,2,0
1352711977.260,0,0.027863,0.141044,0.105944,0.203619,0.499644,-2.352576,-0.185447,0.189208,0.880237,-0.393691,-12.234571,7.439764,-24.609726,2,0
1352711977.270,0,0.066211,0.084306,0.101979,0.204173,0.500498,-2.351424,-0.185948,0.189376,0.879845,-0.394249,-12.091688,7.491693,-24.664532,2,0
1352711977.281,0,0.042998,0.021517,0.077983,0.204189,0.501222,-2.350555,-0.186163,0.189617,0.879577,-0.394631,-12.091688,7.491693,-24.664532,2,0
1352711977.292,0,0.039188,-0.040322,0.094550,0.201821,0.502079,-2.348774,-0.185440,0.190305,0.879331,-0.395187,-12.059054,7.486637,-24.682037,2,0
1352711977.303,0,0.006109,-0.105545,0.069246,0.200383,0.502347,-2.347954,-0.184933,0.190633,0.879266,-0.395410,-12.059054,7.486637,-24.682037,2,0
1352711977.313,0,-0.001083,-0.089657,0.043625,0.199009,0.502454,-2.347357,-0.184404,0.190898,0.879261,-0.395541,-12.059054,7.486637,-24.682037,2,0
1352711977.324,0,-0.019353,-0.041107,0.012121,0.197177,0.502624,-2.346533,-0.183708,0.191261,0.879244,-0.395728,-10.035856,8.751616,-25.207199,2,0
1352711977.335,0,-0.019010,0.014969,-0.033704,0.197291,0.502336,-2.314625,-0.186733,0.188154,0.872847,-0.409717,-10.067035,8.761967,-25.191166,2,0
1352711977.346,0,-0.000138,0.006818,-0.072862,0.197774,0.502165,-2.315397,-0.186840,0.188051,0.872982,-0.409426,-10.067035,8.761967,-25.191166,2,0
1352711977.356,0,0.040780,-0.040152,-0.088970,0.198061,0.502269,-2.316540,-0.186877,0.188145,0.873175,-0.408954,-10.067035,8.761967,-25.191166,2,0
1352711977.367,0,0.076373,-0.071618,-0.065666,0.198395,0.501911,-2.300804,-0.188430,0.186441,0.869947,-0.415845,-10.095920,8.726904,-25.191776,2,0
1352711977.378,0,0.077402,-0.054835,-0.043456,0.198141,0.502673,-2.301606,-0.188386,0.186908,0.870037,-0.415467,-10.095920,8.726904,-25.191776,2,0
1352711977.389,0,0.046386,-0.044130,-0.027622,0.197890,0.503177,-2.302136,-0.188320,0.187234,0.870103,-0.415210,-10.095920,8.726904,-25.191776,2,0
1352711977.399,0,-0.013232,-0.019084,0.009061,0.197584,0.503196,-2.291559,-0.189179,0.186309,0.867922,-0.419777,-10.143880,8.682366,-25.187897,2,0
1352711977.410,0,-0.007109,-0.005788,0.012893,0.197604,0.502524,-2.291473,-0.189069,0.185998,0.867991,-0.419821,-10.143880,8.682366,-25.187897,2,0
1352711977.421,0,0.005357,-0.032260,0.000522,0.197295,0.502545,-2.284241,-0.189611,0.185387,0.866494,-0.422928,-10.145010,8.701018,-25.181002,2,0
1352711977.432,0,-0.009340,-0.034619,-0.013064,0.196913,0.502472,-2.284342,-0.189422,0.185445,0.866561,-0.422850,-10.145010,8.701018,-25.181002,2,0
1352711977.442,0,-0.016699,-0.037009,-0.019259,0.196788,0.501878,-2.284596,-0.189232,0.185233,0.866705,-0.422733,-10.145010,8.701018,-25.181002,2,0
1352711977.453,0,-0.010578,-0.030963,-0.014231,0.196550,0.501738,-2.279582,-0.189566,0.184746,0.865683,-0.424883,-10.172524,8.711773,-25.166176,2,0
1352711977.464,0,-0.028051,-0.015401,0.005432,0.196273,0.501533,-2.275538,-0.189780,0.184331,0.864876,-0.426609,-10.186964,8.713699,-25.159664,2,0
1352711977.474,0,-0.062600,0.028109,-0.000503,0.196352,0.500915,-2.275344,-0.189714,0.184022,0.864909,-0.426706,-10.186964,8.713699,-25.159664,2,0
1352711977.485,0,-0.074864,0.016044,-0.009264,0.196504,0.500102,-2.275221,-0.189635,0.183618,0.864975,-0.426780,-10.186964,8.713699,-25.159664,2,0
1352711977.496,0,-0.052444,0.042888,-0.033356,0.196899,0.499469,-2.272266,-0.189956,0.182973,0.864389,-0.428099,-10.178042,8.761183,-25.146780,2,0
1352711977.507,0,-0.114040,0.120316,-0.055067,0.198122,0.498391,-2.272678,-0.190240,0.182273,0.864503,-0.428042,-10.178042,8.761183,-25.146780,2,0
1352711977.517,0,-0.210120,0.209838,-0.087903,0.200365,0.496250,-2.273131,-0.190758,0.180889,0.864668,-0.428066,-10.178042,8.761183,-25.146780,2,0
1352711977.528,0,-0.284848,0.216153,-0.153188,0.201351,0.494725,-2.270726,-0.191108,0.179773,0.864258,-0.429206,-10.111692,8.830566,-25.149277,2,0
1352711977.539,0,-0.316829,0.193183,-0.165846,0.204161,0.491082,-2.272030,-0.191506,0.177682,0.864745,-0.428917,-10.111692,8.830566,-25.149277,2,0
1352711977.550,0,-0.303794,0.186737,-0.103338,0.206478,0.487581,-2.270604,-0.191961,0.175498,0.864673,-0.429758,-10.051155,8.925919,-25.139877,2,0
1352711977.560,0,-0.262187,0.193622,-0.051489,0.208637,0.483824,-2.270688,-0.192165,0.173378,0.864970,-0.429929,-10.051155,8.925919,-25.139877,2,0
1352711977.571,0,-0.201531,0.205984,-0.069378,0.210877,0.481426,-2.270791,-0.192663,0.171844,0.865087,-0.430087,-10.051155,8.925919,-25.139877,2,0
1352711977.582,0,-0.125891,0.207628,-0.105638,0.213516,0.479703,-2.269845,-0.193554,0.170421,0.864851,-0.430728,-9.916853,9.132343,-25.119064,2,0
1352711977.593,0,-0.055948,0.166298,-0.052909,0.215769,0.478746,-2.269011,-0.194415,0.169430,0.864576,-0.431282,-9.847719,9.168287,-25.133163,2,0
1352711977.603,0,-0.013289,0.031653,0.017141,0.218121,0.476842,-2.269683,-0.195009,0.168145,0.864737,-0.431194,-9.847719,9.168287,-25.133163,2,0
1352711977.614,0,0.034605,-0.108833,0.056561,0.217018,0.477207,-2.269177,-0.194645,0.168495,0.864689,-0.431319,-9.847719,9.168287,-25.133163,2,0
1352711977.625,0,0.063539,-0.134967,-0.002301,0.215508,0.477874,-2.269121,-0.194125,0.169111,0.864737,-0.431215,-9.790825,9.219646,-25.136602,2,0
1352711977.636,0,0.034382,-0.091087,-0.059648,0.214684,0.478238,-2.269783,-0.193783,0.169514,0.864913,-0.430858,-9.790825,9.219646,-25.136602,2,0
1352711977.646,0,-0.014580,-0.020684,-0.113185,0.213269,0.478097,-2.270242,-0.193105,0.169801,0.865167,-0.430540,-9.790825,9.219646,-25.136602,2,0
1352711977.657,0,-0.057674,0.005940,-0.129127,0.213952,0.477301,-2.271646,-0.193128,0.169436,0.865505,-0.429993,-9.893097,9.189314,-25.107649,2,0
1352711977.668,0,-0.072392,-0.012169,-0.139184,0.214492,0.476246,-2.272980,-0.193046,0.168981,0.865875,-0.429463,-9.893097,9.189314,-25.107649,2,0
1352711977.679,0,-0.052877,-0.066753,-0.110178,0.215238,0.474068,-2.274520,-0.192822,0.168004,0.866413,-0.428863,-9.913220,9.196076,-25.097233,2,0
1352711977.689,0,0.013983,-0.210475,-0.120896,0.213995,0.473720,-2.275843,-0.192106,0.168243,0.866860,-0.428186,-9.913220,9.196076,-25.097233,2,0
1352711977.700,0,0.142952,-0.299297,-0.177274,0.212018,0.474508,-2.278035,-0.191214,0.169225,0.867418,-0.427067,-9.913220,9.196076,-25.097233,2,0
1352711977.711,0,0.227314,-0.362931,-0.217768,0.209623,0.476333,-2.281067,-0.190265,0.170836,0.868059,-0.425544,-10.076937,9.167236,-25.042524,2,0
1352711977.722,0,0.154386,-0.312330,-0.212848,0.207454,0.477743,-2.284086,-0.189332,0.172209,0.868726,-0.424042,-10.248863,9.044676,-25.017303,2,0
1352711977.732,0,-0.021367,-0.202931,-0.173715,0.206026,0.477609,-2.286353,-0.188491,0.172667,0.869358,-0.422935,-10.248863,9.044676,-25.017303,2,0
1352711977.743,0,-0.182063,-0.096938,-0.161471,0.205444,0.475698,-2.287892,-0.187744,0.172084,0.869982,-0.422222,-10.248863,9.044676,-25.017303,2,0
1352711977.754,0,-0.208860,-0.066451,-0.205452,0.205505,0.473055,-2.289634,-0.187122,0.171058,0.870679,-0.421477,-10.447702,9.026058,-24.941666,2,0
1352711977.765,0,-0.134807,-0.119594,-0.196897,0.202845,0.471754,-2.290571,-0.185637,0.171126,0.871289,-0.420845,-10.447702,9.026058,-24.941666,2,0
1352711977.775,0,-0.066123,-0.137957,-0.142748,0.202116,0.470598,-2.292228,-0.184960,0.170918,0.871851,-0.420064,-10.447702,9.026058,-24.941666,2,0
1352711977.786,0,-0.076316,-0.086191,-0.110483,0.201528,0.469634,-2.293489,-0.184414,0.170728,0.872291,-0.419467,-10.628942,9.061924,-24.851921,2,0
1352711977.797,0,-0.166709,-0.033359,-0.084821,0.201059,0.468313,-2.294077,-0.183910,0.170292,0.872623,-0.419174,-10.628942,9.061924,-24.851921,2,0
1352711977.808,0,-0.153354,-0.048031,-0.057926,0.200787,0.466453,-2.294431,-0.183411,0.169552,0.872955,-0.419002,-10.671141,9.087021,-24.824657,2,0
1352711977.818,0,-0.094172,-0.096374,-0.044536,0.200004,0.465219,-2.294720,-0.182813,0.169192,0.873241,-0.418813,-10.671141,9.087021,-24.824657,2,0
1352711977.829,0,-0.039915,-0.150768,-0.032457,0.198629,0.464574,-2.294934,-0.182072,0.169211,0.873491,-0.418606,-10.671141,9.087021,-24.824657,2,0
1352711977.840,0,-0.041034,-0.185775,-0.043811,0.196560,0.463731,-2.295224,-0.180985,0.169295,0.873844,-0.418306,-10.754545,9.158144,-24.762453,2,0
1352711977.851,0,-0.076865,-0.183455,-0.041559,0.194714,0.462899,-2.295549,-0.179994,0.169338,0.874182,-0.418011,-10.839727,9.178951,-24.717567,2,0
1352711977.861,0,-0.068359,-0.155708,-0.027776,0.193052,0.462075,-2.295791,-0.179091,0.169340,0.874483,-0.417768,-10.839727,9.178951,-24.717567,2,0
1352711977.872,0,-0.054837,-0.131520,-0.022570,0.191644,0.461383,-2.295933,-0.178333,0.169337,0.874724,-0.417589,-10.839727,9.178951,-24.717567,2,0
1352711977.883,0,-0.057625,-0.080911,0.007265,0.192099,0.458996,-2.296510,-0.178032,0.168228,0.875096,-0.417385,-10.945562,9.251682,-24.643700,2,0
1352711977.894,0,-0.091025,-0.037467,0.011136,0.191468,0.458151,-2.296184,-0.177624,0.167954,0.875188,-0.417478,-10.945562,9.251682,-24.643700,2,0
1352711977.904,0,-0.078514,-0.009472,-0.009353,0.191176,0.457242,-2.295961,-0.177343,0.167589,0.875278,-0.417554,-10.945562,9.251682,-24.643700,2,0
1352711977.915,0,-0.068874,0.053318,0.010877,0.192036,0.454898,-2.295981,-0.177275,0.166365,0.875491,-0.417626,-10.968414,9.315962,-24.609301,2,0
1352711977.926,0,-0.046907,0.100363,0.037170,0.192826,0.454415,-2.295544,-0.177565,0.165945,0.875389,-0.417884,-10.968414,9.315962,-24.609301,2,0
1352711977.937,0,-0.007671,0.124439,0.067031,0.193786,0.454352,-2.294775,-0.178038,0.165648,0.875150,-0.418301,-10.927763,9.374249,-24.605247,2,0
1352711977.947,0,0.027818,0.142284,0.110302,0.194706,0.454779,-2.293623,-0.178616,0.165543,0.874775,-0.418880,-10.927763,9.374249,-24.605247,2,0
1352711977.958,0,0.064538,0.217160,0.140613,0.196475,0.454656,-2.292268,-0.179478,0.164996,0.874347,-0.419619,-10.927763,9.374249,-24.605247,2,0
1352711977.969,0,0.079114,0.285987,0.163387,0.198646,0.455810,-2.290601,-0.180784,0.164905,0.873661,-0.420524,-10.774879,9.414289,-24.657333,2,0
1352711977.980,0,0.058087,0.324637,0.164841,0.201284,0.456798,-2.288819,-0.182270,0.164629,0.872925,-0.421517,-10.637510,9.412812,-24.717468,2,0
1352711977.990,0,0.038387,0.305273,0.159641,0.203875,0.457588,-2.287039,-0.183697,0.164271,0.872216,-0.422505,-10.637510,9.412812,-24.717468,2,0
1352711978.001,0,0.049712,0.232847,0.140670,0.205443,0.458515,-2.285255,-0.184704,0.164188,0.871580,-0.423410,-10.637510,9.412812,-24.717468,2,0
1352711978.012,0,0.084308,0.197848,0.140559,0.207025,0.459558,-2.283792,-0.185712,0.164182,0.870994,-0.424175,-10.375289,9.425614,-24.823822,2,0
1352711978.023,0,0.132344,0.150663,0.157566,0.208094,0.461134,-2.282322,-0.186599,0.164520,0.870387,-0.424901,-10.375289,9.425614,-24.823822,2,0
1352711978.033,0,0.174158,0.131274,0.177237,0.209458,0.462587,-2.280944,-0.187583,0.164748,0.869785,-0.425611,-10.375289,9.425614,-24.823822,2,0
1352711978.044,0,0.161939,0.116825,0.163555,0.210054,0.464770,-2.279355,-0.188390,0.165442,0.869118,-0.426348,-10.194389,9.379435,-24.916092,2,0
1352711978.055,0,0.147694,0.084570,0.100697,0.210576,0.466602,-2.278351,-0.189051,0.166051,0.868624,-0.426824,-10.194389,9.379435,-24.916092,2,0
1352711978.065,0,0.111605,0.005599,0.137720,0.210344,0.468143,-2.277210,-0.189340,0.166677,0.868208,-0.427298,-10.134469,9.339455,-24.955521,2,0
1352711978.076,0,0.105238,-0.005449,0.159623,0.210302,0.469105,-2.275988,-0.189608,0.166997,0.867830,-0.427823,-10.134469,9.339455,-24.955521,2,0
1352711978.087,0,0.063566,0.000752,0.123902,0.209618,0.470215,-2.274560,-0.189644,0.167502,0.867449,-0.428382,-10.134469,9.339455,-24.955521,2,0
1352711978.098,0,-0.022500,0.000846,0.081727,0.209082,0.470460,-2.273459,-0.189551,0.167621,0.867232,-0.428814,-10.077783,9.309883,-24.989502,2,0
1352711978.108,0,-0.060314,0.016861,0.027745,0.208983,0.469977,-2.272828,-0.189467,0.167368,0.867168,-0.429081,-10.064076,9.328840,-24.987957,2,0
1352711978.119,0,-0.021741,0.042598,-0.007304,0.209298,0.469593,-2.272731,-0.189538,0.167121,0.867165,-0.429150,-10.064076,9.328840,-24.987957,2,0
1352711978.130,0,0.040138,0.108081,-0.027233,0.208401,0.469494,-2.272226,-0.189173,0.167221,0.867154,-0.429295,-10.064076,9.328840,-24.987957,2,0
1352711978.141,0,0.088293,0.188067,-0.032324,0.210543,0.470256,-2.272823,-0.190198,0.167156,0.866983,-0.429213,-10.044433,9.345867,-24.989498,2,0
1352711978.151,0,0.147678,0.173773,-0.044342,0.212843,0.471558,-2.273609,-0.191379,0.167316,0.866767,-0.429062,-10.044433,9.345867,-24.989498,2,0
1352711978.162,0,0.170138,0.084453,-0.065852,0.213921,0.472510,-2.274473,-0.191957,0.167590,0.866728,-0.428776,-10.044433,9.345867,-24.989498,2,0
1352711978.173,0,0.179890,-0.031809,-0.043592,0.214367,0.474287,-2.275587,-0.192397,0.168390,0.866697,-0.428327,-9.964501,9.231616,-25.063858,2,0
1352711978.184,0,0.174617,-0.096228,-0.001346,0.213648,0.476072,-2.276077,-0.192386,0.169383,0.866643,-0.428051,-9.964501,9.231616,-25.063858,2,0
1352711978.194,0,0.173414,-0.142196,-0.001778,0.212431,0.477945,-2.276569,-0.192174,0.170522,0.866625,-0.427730,-9.995012,9.158539,-25.078512,2,0
1352711978.205,0,0.137621,-0.153163,-0.002097,0.211033,0.480201,-2.277029,-0.191960,0.171867,0.866567,-0.427404,-9.995012,9.158539,-25.078512,2,0
1352711978.216,0,0.023028,-0.138713,-0.030839,0.209646,0.480706,-2.277379,-0.191425,0.172421,0.866710,-0.427132,-9.995012,9.158539,-25.078512,2,0
1352711978.227,0,-0.126044,-0.135159,-0.069693,0.208493,0.479602,-2.277899,-0.190670,0.172227,0.867073,-0.426811,-10.111834,9.037262,-25.075678,2,0
1352711978.237,0,-0.183605,-0.212371,-0.118532,0.206767,0.477513,-2.278685,-0.189455,0.171742,0.867672,-0.426329,-10.180940,9.073083,-25.034746,2,0
1352711978.248,0,-0.146463,-0.290888,-0.123922,0.203072,0.475931,-2.279225,-0.187502,0.171878,0.868337,-0.425783,-10.180940,9.073083,-25.034746,2,0
1352711978.259,0,-0.067639,-0.330804,-0.098084,0.200118,0.474788,-2.280323,-0.185907,0.172101,0.868992,-0.425057,-10.180940,9.073083,-25.034746,2,0
1352711978.270,0,-0.023799,-0.304564,-0.030201,0.196953,0.474362,-2.280797,-0.184409,0.172628,0.869439,-0.424581,-10.464569,9.131790,-24.896065,2,0
1352711978.280,0,-0.006988,-0.257703,0.020558,0.193849,0.474086,-2.280635,-0.183020,0.173149,0.869725,-0.424385,-10.464569,9.131790,-24.896065,2,0
1352711978.291,0,0.001277,-0.193841,0.059171,0.191292,0.474173,-2.279981,-0.181982,0.173670,0.869808,-0.424447,-10.464569,9.131790,-24.896065,2,0
1352711978.302,0,0.024529,-0.079231,0.084773,0.189786,0.474510,-2.279112,-0.181467,0.174061,0.869718,-0.424691,-10.645591,9.151114,-24.812084,2,0
1352711978.313,0,0.067504,-0.010340,0.107721,0.188966,0.475267,-2.278059,-0.181348,0.174476,0.869474,-0.425072,-10.645591,9.151114,-24.812084,2,0
1352711978.323,0,0.129326,0.041917,0.093881,0.189036,0.475813,-2.277216,-0.181557,0.174627,0.869219,-0.425441,-10.650652,9.149939,-24.810343,2,0
1352711978.334,0,0.160311,0.045711,0.080631,0.189218,0.477641,-2.276542,-0.182047,0.175338,0.868829,-0.425736,-10.650652,9.149939,-24.810343,2,0
1352711978.345,0,0.178853,0.045770,0.078295,0.189462,0.479655,-2.276004,-0.182588,0.176131,0.868438,-0.425975,-10.650652,9.149939,-24.810343,2,0
1352711978.356,0,0.150595,0.076073,0.060027,0.190028,0.481487,-2.275630,-0.183220,0.176789,0.868074,-0.426173,-10.591040,9.079228,-24.861786,2,0
1352711978.366,0,0.123686,0.099209,0.029452,0.191001,0.483065,-2.275541,-0.183954,0.177273,0.867765,-0.426285,-10.552602,9.023779,-24.898291,2,0
1352711978.377,0,0.085806,0.101858,-0.016078,0.192436,0.484123,-2.275992,-0.184739,0.177478,0.867594,-0.426209,-10.552602,9.023779,-24.898291,2,0
1352711978.388,0,0.069955,0.106823,-0.039403,0.193772,0.484805,-2.276509,-0.185404,0.177543,0.867493,-0.426098,-10.552602,9.023779,-24.898291,2,0
1352711978.399,0,0.035702,0.108196,-0.075119,0.194655,0.485926,-2.277017,-0.185957,0.177900,0.867375,-0.425948,-10.471211,8.946892,-24.960323,2,0
1352711978.409,0,-0.014483,0.096327,-0.124534,0.196299,0.485684,-2.278337,-0.186506,0.177565,0.867535,-0.425523,-10.471211,8.946892,-24.960323,2,0
1352711978.420,0,-0.063432,0.083252,-0.173953,0.198013,0.484760,-2.280123,-0.186915,0.176958,0.867873,-0.424906,-10.471211,8.946892,-24.960323,2,0
1352711978.431,0,-0.075697,0.088131,-0.183783,0.199935,0.483562,-2.282148,-0.187342,0.176207,0.868277,-0.424204,-10.445216,8.909339,-24.984636,2,0
1352711978.442,0,-0.052235,0.044625,-0.181593,0.201796,0.482053,-2.284276,-0.187676,0.175342,0.868747,-0.423451,-10.445216,8.909339,-24.984636,2,0
1352711978.452,0,-0.006525,-0.037549,-0.178397,0.202594,0.481494,-2.286323,-0.187738,0.175117,0.869177,-0.422634,-10.439515,8.914312,-24.985245,2,0
1352711978.463,0,-0.031031,-0.090930,-0.181490,0.202715,0.480888,-2.288372,-0.187496,0.175014,0.869676,-0.421757,-10.439515,8.914312,-24.985245,2,0
1352711978.474,0,-0.114058,-0.215032,-0.279916,0.202042,0.479373,-2.291145,-0.186675,0.174741,0.870517,-0.420498,-10.439515,8.914312,-24.985245,2,0
1352711978.485,0,-0.163495,-0.375166,-0.404193,0.200366,0.476947,-2.295180,-0.185137,0.174387,0.871828,-0.418604,-10.570538,8.881050,-24.941963,2,0
1352711978.495,0,-0.192878,-0.578586,-0.559371,0.197312,0.473838,-2.300904,-0.182723,0.174164,0.873697,-0.415852,-10.780902,8.877092,-24.853176,2,0
1352711978.506,0,-0.196533,-0.691339,-0.697629,0.193461,0.470366,-2.308333,-0.179745,0.174084,0.876020,-0.412281,-10.780902,8.877092,-24.853176,2,0
1352711978.517,0,-0.191969,-0.719692,-0.793409,0.189681,0.466779,-2.317029,-0.176667,0.174028,0.878587,-0.408152,-10.780902,8.877092,-24.853176,2,0
1352711978.528,0,-0.187940,-0.706112,-0.831233,0.186200,0.463088,-2.326333,-0.173651,0.173894,0.881236,-0.403770,-11.523976,8.776686,-24.553587,2,0
1352711978.538,0,-0.189212,-0.667417,-0.829658,0.183102,0.459414,-2.335732,-0.170800,0.173674,0.883839,-0.399366,-11.523976,8.776686,-24.553587,2,0
1352711978.549,0,-0.143254,-0.686460,-0.858952,0.180143,0.456122,-2.345390,-0.168061,0.173596,0.886406,-0.394846,-11.523976,8.776686,-24.553587,2,0
1352711978.560,0,-0.059837,-0.782542,-0.930375,0.176604,0.453465,-2.355961,-0.165100,0.173971,0.889095,-0.389855,-12.305131,8.581512,-24.241539,2,0
1352711978.571,0,0.056932,-0.880958,-1.002841,0.172517,0.451898,-2.367625,-0.161987,0.175006,0.891874,-0.384310,-12.305131,8.581512,-24.241539,2,0
1352711978.581,0,0.209881,-0.964242,-0.978175,0.167675,0.451881,-2.379712,-0.158758,0.176891,0.894569,-0.378486,-12.761066,8.387081,-24.073284,2,0
1352711978.592,0,0.356303,-0.994342,-0.776664,0.161649,0.453806,-2.390217,-0.155452,0.179724,0.896788,-0.373236,-12.761066,8.387081,-24.073284,2,0
1352711978.603,0,0.460245,-1.068501,-0.515798,0.153765,0.457480,-2.397880,-0.151839,0.183449,0.898379,-0.369062,-12.761066,8.387081,-24.073284,2,0
1352711978.614,0,0.568836,-1.184260,-0.359408,0.143831,0.462617,-2.403459,-0.147718,0.188032,0.899536,-0.365593,-13.736801,7.806476,-23.729099,2,0
1352711978.624,0,0.681067,-1.277297,-0.337531,0.132619,0.469079,-2.408532,-0.143268,0.193386,0.900502,-0.362176,-14.232476,7.505969,-23.533123,2,0
1352711978.635,0,0.756792,-1.320371,-0.380339,0.121050,0.476510,-2.414097,-0.138746,0.199249,0.901428,-0.358438,-14.232476,7.505969,-23.533123,2,0
1352711978.646,0,0.760654,-1.298452,-0.399712,0.109647,0.484189,-2.419946,-0.134283,0.205181,0.902320,-0.354525,-14.232476,7.505969,-23.533123,2,0
1352711978.656,0,0.669116,-1.163246,-0.390449,0.099368,0.491215,-2.425595,-0.130212,0.210569,0.903140,-0.350776,-15.292719,6.771125,-23.086695,2,0
1352711978.667,0,0.569977,-1.014897,-0.360287,0.090473,0.497180,-2.430787,-0.126618,0.215174,0.903887,-0.347357,-15.292719,6.771125,-23.086695,2,0
1352711978.678,0,0.493068,-0.745469,-0.338671,0.083942,0.502334,-2.435536,-0.123988,0.218951,0.904482,-0.344383,-15.292719,6.771125,-23.086695,2,0
1352711978.689,0,0.387725,-0.457979,-0.314611,0.080431,0.506519,-2.439930,-0.122594,0.221731,0.904934,-0.341907,-16.045591,6.179994,-22.738897,2,0
1352711978.699,0,0.260206,-0.306049,-0.287040,0.078711,0.509392,-2.443832,-0.121844,0.223573,0.905347,-0.339877,-16.045591,6.179994,-22.738897,2,0
1352711978.710,0,0.138985,-0.162477,-0.272982,0.078269,0.510967,-2.447363,-0.121500,0.224582,0.905775,-0.338190,-16.213152,5.983098,-22.672607,2,0
1352711978.721,0,0.044760,-0.072229,-0.235977,0.078864,0.511488,-2.450508,-0.121500,0.224910,0.906204,-0.336819,-16.213152,5.983098,-22.672607,2,0
1352711978.732,0,-0.033619,-0.029307,-0.172363,0.079568,0.511165,-2.452851,-0.121504,0.224786,0.906596,-0.335844,-16.213152,5.983098,-22.672607,2,0
1352711978.742,0,-0.092582,-0.008395,-0.068410,0.079948,0.510207,-2.453941,-0.121402,0.224351,0.906876,-0.335416,-16.338934,5.803558,-22.628937,2,0
1352711978.753,0,-0.118170,0.011457,0.028370,0.082283,0.505813,-2.454929,-0.121656,0.222011,0.907448,-0.335333,-16.315775,5.867503,-22.629158,2,0
1352711978.764,0,-0.085408,0.049803,0.091397,0.082156,0.504839,-2.453841,-0.121565,0.221521,0.907395,-0.335835,-16.315775,5.867503,-22.629158,2,0
1352711978.775,0,-0.010335,0.127234,0.114621,0.082675,0.504600,-2.452479,-0.121914,0.221242,0.907164,-0.336516,-16.315775,5.867503,-22.629158,2,0
1352711978.785,0,0.078524,0.206077,0.112219,0.082636,0.503554,-2.450511,-0.121948,0.220651,0.906964,-0.337429,-16.243338,5.954235,-22.658596,2,0
1352711978.796,0,0.131859,0.295948,0.079077,0.085204,0.505000,-2.449542,-0.123449,0.220818,0.906463,-0.338118,-16.243338,5.954235,-22.658596,2,0
1352711978.807,0,0.086637,0.264747,0.028289,0.088039,0.506081,-2.449162,-0.124947,0.220809,0.906088,-0.338579,-16.243338,5.954235,-22.658596,2,0
1352711978.818,0,0.017912,0.152371,-0.012368,0.090092,0.506471,-2.449281,-0.125926,0.220647,0.905931,-0.338743,-16.062721,5.962916,-22.784721,2,0
1352711978.828,0,-0.081759,0.074939,-0.045534,0.089939,0.507086,-2.448950,-0.125991,0.220933,0.905807,-0.338863,-16.062721,5.962916,-22.784721,2,0
1352711978.839,0,-0.159070,-0.057985,-0.091333,0.090050,0.505510,-2.449780,-0.125699,0.220246,0.906138,-0.338533,-16.042225,5.951793,-22.802063,2,0
1352711978.850,0,-0.180797,-0.125413,-0.143537,0.089550,0.503447,-2.451199,-0.124990,0.219477,0.906667,-0.337880,-16.042225,5.951793,-22.802063,2,0
1352711978.861,0,-0.163485,-0.114461,-0.147004,0.089017,0.501494,-2.452848,-0.124258,0.218777,0.907221,-0.337116,-16.042225,5.951793,-22.802063,2,0
1352711978.871,0,-0.142629,-0.075792,-0.134271,0.088808,0.499833,-2.454339,-0.123738,0.218144,0.907690,-0.336452,-16.129417,6.008918,-22.725441,2,0
1352711978.882,0,-0.169664,-0.028551,-0.152374,0.089075,0.497985,-2.455919,-0.123396,0.217351,0.908167,-0.335803,-16.171143,6.026990,-22.690975,2,0
1352711978.893,0,-0.225000,0.097354,-0.187066,0.088947,0.495877,-2.457065,-0.122881,0.216478,0.908627,-0.335313,-16.171143,6.026990,-22.690975,2,0
1352711978.904,0,-0.266738,0.263255,-0.226213,0.092469,0.492899,-2.459391,-0.123764,0.214667,0.909164,-0.334696,-16.171143,6.026990,-22.690975,2,0
1352711978.914,0,-0.286535,0.292224,-0.223617,0.096789,0.489665,-2.461809,-0.124964,0.212612,0.909695,-0.334119,-16.132193,6.100145,-22.699152,2,0
1352711978.925,0,-0.249600,0.196613,-0.204674,0.100233,0.486583,-2.464024,-0.125816,0.210762,0.910224,-0.333530,-16.132193,6.100145,-22.699152,2,0
1352711978.936,0,-0.108850,0.096469,-0.196158,0.101517,0.484702,-2.465729,-0.125930,0.209791,0.910655,-0.332921,-16.132193,6.100145,-22.699152,2,0
1352711978.947,0,0.066429,-0.078660,-0.177103,0.102233,0.484724,-2.467965,-0.126025,0.209823,0.910979,-0.331977,-16.066355,6.143550,-22.734116,2,0
1352711978.957,0,0.202129,-0.263615,-0.149807,0.100837,0.486373,-2.470042,-0.125425,0.210943,0.911211,-0.330857,-16.066355,6.143550,-22.734116,2,0
1352711978.968,0,0.256865,-0.339413,-0.190595,0.098423,0.488863,-2.472481,-0.124449,0.212638,0.911461,-0.329449,-16.145618,6.051902,-22.702518,2,0
1352711978.979,0,0.210590,-0.250658,-0.270904,0.096376,0.490608,-2.475475,-0.123464,0.213962,0.911867,-0.327835,-16.145618,6.051902,-22.702518,2,0
1352711978.990,0,0.113241,-0.174479,-0.298971,0.096083,0.491753,-2.479200,-0.123106,0.214766,0.912354,-0.326085,-16.145618,6.051902,-22.702518,2,0
1352711979.000,0,0.047555,-0.084054,-0.277714,0.096606,0.492120,-2.482725,-0.123021,0.215067,0.912850,-0.324526,-16.395237,5.790359,-22.591564,2,0
1352711979.011,0,0.028375,-0.113643,-0.202167,0.098560,0.490878,-2.486277,-0.123345,0.214398,0.913457,-0.323135,-16.455568,5.699239,-22.570862,2,0
1352711979.022,0,0.104417,-0.136870,-0.141894,0.097972,0.491554,-2.488258,-0.122965,0.214926,0.913730,-0.322156,-16.455568,5.699239,-22.570862,2,0
1352711979.033,0,0.233414,-0.068108,-0.071872,0.097703,0.493626,-2.489606,-0.123007,0.216007,0.913708,-0.321477,-16.455568,5.699239,-22.570862,2,0
1352711979.043,0,0.271120,-0.084209,-0.005641,0.097136,0.496455,-2.490139,-0.123113,0.217434,0.913480,-0.321124,-16.529808,5.546706,-22.554607,2,0
1352711979.054,0,0.283406,-0.062424,-0.001698,0.097554,0.497951,-2.490965,-0.123437,0.218106,0.913401,-0.320767,-16.529808,5.546706,-22.554607,2,0
1352711979.065,0,0.271225,-0.116781,-0.016974,0.096745,0.500909,-2.491462,-0.123454,0.219629,0.913162,-0.320401,-16.529808,5.546706,-22.554607,2,0
1352711979.076,0,0.259038,-0.211080,-0.028944,0.095016,0.503651,-2.492094,-0.123002,0.221207,0.913027,-0.319873,-16.588251,5.365209,-22.555607,2,0
1352711979.086,0,0.239310,-0.266775,-0.028354,0.092613,0.506255,-2.492729,-0.122222,0.222828,0.912949,-0.319269,-16.588251,5.365209,-22.555607,2,0
1352711979.097,0,0.227180,-0.356183,-0.047630,0.089443,0.508210,-2.493512,-0.120978,0.224281,0.913021,-0.318520,-16.677345,5.266529,-22.513123,2,0
1352711979.108,0,0.213875,-0.415296,-0.075207,0.085632,0.510448,-2.494581,-0.119450,0.225981,0.913138,-0.317558,-16.677345,5.266529,-22.513123,2,0
1352711979.119,0,0.209205,-0.462293,-0.102618,0.081494,0.512598,-2.496010,-0.117718,0.227710,0.913338,-0.316392,-16.677345,5.266529,-22.513123,2,0
1352711979.129,0,0.195768,-0.475524,-0.118745,0.076465,0.514389,-2.497261,-0.115544,0.229401,0.913603,-0.315206,-16.974463,5.080499,-22.333092,2,0
1352711979.140,0,0.172567,-0.428171,-0.151523,0.072662,0.516209,-2.499195,-0.113854,0.230947,0.913895,-0.313842,-17.163265,4.987690,-22.209370,2,0
1352711979.151,0,0.147857,-0.374988,-0.153633,0.069510,0.517729,-2.501232,-0.112402,0.232255,0.914200,-0.312510,-17.163265,4.987690,-22.209370,2,0
1352711979.162,0,0.125192,-0.267676,-0.111132,0.067114,0.519053,-2.502892,-0.111309,0.233330,0.914425,-0.311440,-17.163265,4.987690,-22.209370,2,0
1352711979.172,0,0.072701,-0.190836,-0.045823,0.065146,0.519135,-2.503707,-0.110326,0.233720,0.914650,-0.310835,-17.428141,4.831225,-22.037014,2,0
1352711979.183,0,-0.008134,-0.104340,0.013278,0.063709,0.519229,-2.503696,-0.109684,0.233985,0.914715,-0.310670,-17.428141,4.831225,-22.037014,2,0
1352711979.194,0,-0.092349,-0.033328,0.036692,0.062974,0.518474,-2.503224,-0.109292,0.233726,0.914778,-0.310819,-17.483345,4.816559,-21.996460,2,0
1352711979.205,0,-0.164004,-0.022631,0.040027,0.062394,0.516962,-2.502595,-0.108876,0.233087,0.914903,-0.311078,-17.483345,4.816559,-21.996460,2,0
1352711979.215,0,-0.205831,-0.032294,0.022538,0.060464,0.514721,-2.501413,-0.107798,0.232292,0.915105,-0.311453,-17.483345,4.816559,-21.996460,2,0
1352711979.226,0,-0.200806,-0.064890,0.014918,0.059718,0.512542,-2.501115,-0.107168,0.231390,0.915371,-0.311560,-17.521526,4.947886,-21.936852,2,0
1352711979.237,0,-0.162489,-0.075664,0.011378,0.058790,0.510674,-2.500841,-0.106497,0.230661,0.915610,-0.311627,-17.521526,4.947886,-21.936852,2,0
1352711979.247,0,-0.096098,-0.076954,0.043625,0.056529,0.509239,-2.499789,-0.105369,0.230297,0.915744,-0.311886,-17.521526,4.947886,-21.936852,2,0
1352711979.258,0,-0.148644,-0.065516,0.120581,0.055145,0.507950,-2.498522,-0.104689,0.229853,0.915779,-0.312342,-17.584799,5.088686,-21.853855,2,0
1352711979.269,0,-0.316537,-0.001731,0.111568,0.054083,0.505129,-2.496813,-0.103976,0.228633,0.915914,-0.313079,-17.597328,5.175467,-21.823368,2,0
1352711979.280,0,-0.426077,0.074314,-0.074594,0.054755,0.500676,-2.496882,-0.103607,0.226482,0.916433,-0.313243,-17.597328,5.175467,-21.823368,2,0
1352711979.290,0,-0.422493,0.066721,-0.202026,0.053549,0.495365,-2.497391,-0.102199,0.224251,0.917218,-0.313015,-17.597328,5.175467,-21.823368,2,0
1352711979.301,0,-0.357264,-0.033749,-0.170706,0.054414,0.491201,-2.499406,-0.101746,0.222299,0.917988,-0.312296,-17.621426,5.444303,-21.738348,2,0
1352711979.312,0,-0.301179,-0.126166,-0.083019,0.053777,0.487785,-2.500461,-0.100825,0.220876,0.918592,-0.311829,-17.621426,5.444303,-21.738348,2,0
1352711979.323,0,-0.287961,-0.098589,-0.043485,0.052741,0.484681,-2.500872,-0.099839,0.219626,0.919075,-0.311606,-17.621426,5.444303,-21.738348,2,0
1352711979.333,0,-0.296733,0.033191,-0.038638,0.050457,0.481164,-2.500043,-0.098352,0.218317,0.919471,-0.311828,-17.731260,5.636325,-21.599655,2,0
1352711979.344,0,-0.259611,0.185830,-0.057825,0.052317,0.478156,-2.500523,-0.098704,0.216662,0.919805,-0.311886,-17.731260,5.636325,-21.599655,2,0
1352711979.355,0,-0.142220,0.210376,-0.069129,0.054921,0.476213,-2.501245,-0.099532,0.215394,0.920015,-0.311883,-17.696497,5.721203,-21.605848,2,0
1352711979.366,0,-0.016436,0.116130,-0.044725,0.055170,0.475146,-2.501130,-0.099499,0.214857,0.920108,-0.311989,-17.696497,5.721203,-21.605848,2,0
1352711979.376,0,0.051358,0.049629,-0.026549,0.055966,0.475547,-2.501506,-0.099885,0.214937,0.920081,-0.311892,-17.696497,5.721203,-21.605848,2,0
1352711979.387,0,0.032840,0.091948,-0.029947,0.056939,0.475964,-2.501829,-0.100360,0.214994,0.920034,-0.311838,-17.633156,5.758619,-21.647655,2,0
1352711979.398,0,-0.012516,0.179243,-0.073517,0.058940,0.475909,-2.502577,-0.101192,0.214694,0.920056,-0.311710,-17.603281,5.738724,-21.677235,2,0
1352711979.409,0,-0.043096,0.230237,-0.111205,0.061221,0.474490,-2.503507,-0.101930,0.213730,0.920250,-0.311559,-17.603281,5.738724,-21.677235,2,0
1352711979.419,0,-0.045780,0.227641,-0.086747,0.064170,0.473949,-2.504622,-0.103088,0.213078,0.920336,-0.311373,-17.603281,5.738724,-21.677235,2,0
1352711979.430,0,-0.056159,0.219957,-0.029309,0.066741,0.473363,-2.505119,-0.104131,0.212432,0.920348,-0.311431,-17.478996,5.739240,-21.777433,2,0
1352711979.441,0,-0.102257,0.207423,0.018066,0.068895,0.472335,-2.504925,-0.104991,0.211610,0.920325,-0.311770,-17.478996,5.739240,-21.777433,2,0
1352711979.452,0,-0.106045,0.198893,0.027756,0.072478,0.470621,-2.505243,-0.106352,0.210275,0.920384,-0.312036,-17.478996,5.739240,-21.777433,2,0
1352711979.462,0,-0.083770,0.142102,0.026143,0.074004,0.469664,-2.504839,-0.106955,0.209573,0.920351,-0.312400,-17.310308,5.811574,-21.892685,2,0
1352711979.473,0,-0.041692,0.079341,0.019696,0.074847,0.469130,-2.504519,-0.107297,0.209177,0.920318,-0.312646,-17.310308,5.811574,-21.892685,2,0
1352711979.484,0,0.002601,0.017614,0.041438,0.076670,0.468298,-2.504830,-0.107981,0.208524,0.920365,-0.312709,-17.269690,5.840242,-21.917122,2,0
1352711979.495,0,0.072259,-0.014266,0.126091,0.076035,0.468933,-2.503659,-0.107904,0.208854,0.920142,-0.313170,-17.269690,5.840242,-21.917122,2,0
1352711979.505,0,0.074371,-0.012125,0.166548,0.075082,0.469905,-2.501839,-0.107801,0.209354,0.919795,-0.313889,-17.269690,5.840242,-21.917122,2,0
1352711979.516,0,0.032372,-0.001343,0.167615,0.074160,0.470525,-2.499865,-0.107676,0.209680,0.919463,-0.314688,-17.223658,5.869319,-21.945560,2,0
1352711979.527,0,-0.014498,0.022800,0.160198,0.074150,0.470709,-2.498164,-0.107877,0.209675,0.919174,-0.315465,-17.195726,5.897825,-21.959816,2,0
1352711979.538,0,-0.052573,0.059180,0.134577,0.073926,0.470342,-2.496440,-0.107900,0.209448,0.918956,-0.316241,-17.195726,5.897825,-21.959816,2,0
1352711979.548,0,-0.059817,0.087129,0.113967,0.074154,0.469776,-2.494950,-0.108076,0.209069,0.918774,-0.316961,-17.195726,5.897825,-21.959816,2,0
1352711979.559,0,-0.033732,0.095784,0.095832,0.074614,0.469447,-2.493721,-0.108366,0.208778,0.918592,-0.317580,-17.124935,6.001789,-21.986950,2,0
1352711979.570,0,-0.002602,0.057337,0.067496,0.073862,0.468311,-2.492329,-0.107994,0.208297,0.918543,-0.318164,-17.124935,6.001789,-21.986950,2,0
1352711979.581,0,0.059348,0.028602,0.045561,0.073964,0.468816,-2.491732,-0.108180,0.208482,0.918384,-0.318438,-17.124935,6.001789,-21.986950,2,0
1352711979.591,0,0.089263,0.045514,0.047188,0.074148,0.469688,-2.491259,-0.108445,0.208830,0.918198,-0.318657,-17.089859,6.056837,-21.999144,2,0
1352711979.602,0,0.099188,0.093986,0.037898,0.074264,0.470147,-2.490585,-0.108638,0.208987,0.918031,-0.318969,-17.089859,6.056837,-21.999144,2,0
1352711979.613,0,0.084397,0.119388,0.033143,0.075378,0.471150,-2.490284,-0.109333,0.209256,0.917806,-0.319204,-17.069845,6.052338,-22.015915,2,0
1352711979.624,0,0.038540,0.100994,0.053516,0.076296,0.471700,-2.489771,-0.109891,0.209335,0.917609,-0.319524,-17.069845,6.052338,-22.015915,2,0
1352711979.634,0,0.036010,0.094888,0.060794,0.077007,0.472137,-2.489051,-0.110359,0.209384,0.917404,-0.319921,-17.069845,6.052338,-22.015915,2,0
1352711979.645,0,0.032463,0.113153,0.041345,0.076792,0.472309,-2.488005,-0.110395,0.209439,0.917229,-0.320374,-16.984846,6.036633,-22.085854,2,0
1352711979.656,0,-0.002049,0.133697,0.032749,0.078007,0.472383,-2.487675,-0.110998,0.209261,0.917100,-0.320651,-16.958368,6.051138,-22.102226,2,0
1352711979.667,0,-0.037846,0.117891,0.032384,0.079097,0.472125,-2.487244,-0.111504,0.208943,0.917000,-0.320968,-16.958368,6.051138,-22.102226,2,0
1352711979.677,0,-0.082134,0.100975,0.014807,0.080116,0.471356,-2.486913,-0.111889,0.208406,0.916980,-0.321241,-16.958368,6.051138,-22.102226,2,0
1352711979.688,0,-0.112823,0.064728,-0.002860,0.079787,0.470793,-2.486297,-0.111717,0.208165,0.916965,-0.321500,-16.889095,6.096991,-22.142632,2,0
1352711979.699,0,-0.096493,0.020207,-0.031345,0.080208,0.469624,-2.486518,-0.111709,0.207570,0.917113,-0.321464,-16.889095,6.096991,-22.142632,2,0
1352711979.710,0,-0.072751,-0.013402,-0.060909,0.080370,0.468735,-2.487026,-0.111596,0.207162,0.917289,-0.321265,-16.889095,6.096991,-22.142632,2,0
1352711979.720,0,-0.030591,-0.032524,-0.080427,0.080284,0.467616,-2.487880,-0.111299,0.206707,0.917561,-0.320886,-16.886749,6.139157,-22.132767,2,0
1352711979.731,0,-0.015941,-0.055618,-0.059727,0.080087,0.467370,-2.488652,-0.111091,0.206667,0.917724,-0.320515,-16.886749,6.139157,-22.132767,2,0
1352711979.742,0,-0.033330,-0.017010,-0.050902,0.080032,0.467034,-2.489252,-0.110953,0.206554,0.917862,-0.320241,-16.912912,6.141947,-22.112005,2,0
1352711979.753,0,-0.063236,0.050479,-0.024737,0.080513,0.466404,-2.489562,-0.111047,0.206204,0.917958,-0.320160,-16.912912,6.141947,-22.112005,2,0
1352711979.763,0,-0.117676,0.081737,-0.014983,0.081407,0.464812,-2.489699,-0.111202,0.205332,0.918114,-0.320218,-16.912912,6.141947,-22.112005,2,0
1352711979.774,0,-0.147470,0.094854,0.002105,0.082366,0.463311,-2.489580,-0.111428,0.204478,0.918214,-0.320398,-16.901155,6.177410,-22.111115,2,0
1352711979.785,0,-0.157588,0.083749,0.030113,0.083130,0.461625,-2.489141,-0.111568,0.203553,0.918295,-0.320707,-16.867041,6.231072,-22.122107,2,0
1352711979.796,0,-0.136598,0.043854,0.032327,0.082378,0.459681,-2.488117,-0.111032,0.202718,0.918395,-0.321135,-16.867041,6.231072,-22.122107,2,0
1352711979.806,0,-0.096849,0.012666,0.007784,0.082464,0.458531,-2.487829,-0.110926,0.202156,0.918476,-0.321296,-16.867041,6.231072,-22.122107,2,0
1352711979.817,0,-0.021325,-0.035408,-0.011797,0.082271,0.458111,-2.487873,-0.110769,0.201996,0.918541,-0.321263,-16.852707,6.344783,-22.100700,2,0
1352711979.828,0,0.034397,-0.105348,-0.025575,0.080784,0.457570,-2.487847,-0.110007,0.201983,0.918681,-0.321134,-16.852707,6.344783,-22.100700,2,0
1352711979.839,0,0.079942,-0.121089,-0.008292,0.079661,0.458335,-2.488089,-0.109583,0.202530,0.918694,-0.320896,-16.852707,6.344783,-22.100700,2,0
1352711979.849,0,0.087116,-0.124889,0.018666,0.078254,0.459258,-2.488028,-0.109083,0.203179,0.918656,-0.320765,-16.933601,6.328594,-22.043434,2,0
1352711979.860,0,0.090778,-0.077716,0.020349,0.077215,0.460227,-2.487891,-0.108767,0.203786,0.918580,-0.320704,-16.933601,6.328594,-22.043434,2,0
1352711979.871,0,0.083297,-0.036646,0.025584,0.075952,0.461218,-2.487330,-0.108395,0.204416,0.918446,-0.320814,-16.968048,6.302275,-22.024477,2,0
1352711979.881,0,0.044904,-0.007780,0.036640,0.075629,0.461859,-2.486980,-0.108380,0.204745,0.918334,-0.320929,-16.968048,6.302275,-22.024477,2,0
1352711979.892,0,0.001627,0.018698,0.041520,0.075542,0.462012,-2.486568,-0.108406,0.204807,0.918255,-0.321107,-16.968048,6.302275,-22.024477,2,0
1352711979.903,0,-0.009543,0.039201,0.046541,0.075688,0.461920,-2.486007,-0.108516,0.204711,0.918168,-0.321380,-16.983624,6.287442,-22.016710,2,0
1352711979.914,0,0.005156,0.033091,0.060049,0.075538,0.461679,-2.485230,-0.108490,0.204582,0.918079,-0.321726,-16.969189,6.311701,-22.020901,2,0
1352711979.924,0,0.025988,0.028172,0.078505,0.075524,0.461933,-2.484344,-0.108613,0.204653,0.917908,-0.322127,-16.969189,6.311701,-22.020901,2,0
1352711979.935,0,0.061840,0.001666,0.074806,0.074887,0.461950,-2.483331,-0.108427,0.204709,0.917777,-0.322526,-16.969189,6.311701,-22.020901,2,0
1352711979.946,0,0.095155,-0.020057,0.078484,0.074206,0.462434,-2.482482,-0.108275,0.204996,0.917622,-0.322837,-16.947016,6.339276,-22.030052,2,0
1352711979.957,0,0.139556,-0.034515,0.084747,0.073348,0.463303,-2.481513,-0.108114,0.205483,0.917412,-0.323176,-16.947016,6.339276,-22.030052,2,0
1352711979.967,0,0.178851,-0.041855,0.109419,0.072188,0.464518,-2.480358,-0.107888,0.206169,0.917149,-0.323561,-16.947016,6.339276,-22.030052,2,0
1352711979.978,0,0.178770,-0.029811,0.116879,0.071218,0.465771,-2.479137,-0.107762,0.206838,0.916860,-0.323994,-16.961462,6.326534,-22.022594,2,0
1352711979.989,0,0.131564,0.018271,0.145206,0.070787,0.466866,-2.477663,-0.107887,0.207333,0.916519,-0.324602,-16.961462,6.326534,-22.022594,2,0
1352711980.000,0,0.058437,0.073561,0.172216,0.071021,0.467477,-2.475914,-0.108270,0.207482,0.916152,-0.325414,-16.948162,6.334351,-22.030586,2,0
1352711980.010,0,-0.014833,0.134786,0.215205,0.071409,0.467448,-2.473581,-0.108685,0.207279,0.915754,-0.326524,-16.948162,6.334351,-22.030586,2,0
1352711980.021,0,-0.043349,0.208457,0.223059,0.072496,0.466984,-2.470990,-0.109378,0.206746,0.915324,-0.327832,-16.948162,6.334351,-22.030586,2,0
1352711980.032,0,-0.047066,0.237490,0.222078,0.074140,0.466293,-2.468445,-0.110285,0.206018,0.914895,-0.329181,-16.806147,6.441629,-22.108135,2,0
1352711980.043,0,-0.045867,0.253204,0.224678,0.076025,0.465555,-2.465916,-0.111292,0.205228,0.914459,-0.330547,-16.686832,6.528884,-22.172825,2,0
1352711980.053,0,-0.031033,0.247213,0.222260,0.078190,0.464361,-2.463514,-0.112340,0.204186,0.914077,-0.331891,-16.686832,6.528884,-22.172825,2,0
1352711980.064,0,0.014743,0.241337,0.212687,0.079619,0.464535,-2.460945,-0.113282,0.203883,0.913549,-0.333207,-16.686832,6.528884,-22.172825,2,0
1352711980.075,0,0.117988,0.214342,0.128548,0.081357,0.465757,-2.459097,-0.114457,0.204050,0.913001,-0.334204,-16.451958,6.664146,-22.307693,2,0
1352711980.086,0,0.136452,0.131811,0.000504,0.082795,0.467208,-2.458876,-0.115366,0.204464,0.912714,-0.334423,-16.451958,6.664146,-22.307693,2,0
1352711980.096,0,0.126146,0.122732,-0.090284,0.083124,0.469018,-2.459238,-0.115765,0.205261,0.912546,-0.334256,-16.451958,6.664146,-22.307693,2,0
1352711980.107,0,0.097782,0.134798,-0.095246,0.085130,0.470082,-2.460526,-0.116716,0.205490,0.912520,-0.333853,-16.370546,6.567766,-22.395994,2,0
1352711980.118,0,0.019823,0.132064,-0.076150,0.087056,0.470449,-2.461570,-0.117545,0.205398,0.912539,-0.333568,-16.370546,6.567766,-22.395994,2,0
1352711980.129,0,-0.077051,0.137447,-0.012996,0.088631,0.469881,-2.461884,-0.118143,0.204893,0.912565,-0.333596,-16.330957,6.522995,-22.437943,2,0
1352711980.139,0,-0.161613,0.105304,0.057239,0.089071,0.468858,-2.460984,-0.118274,0.204296,0.912508,-0.334071,-16.330957,6.522995,-22.437943,2,0
1352711980.150,0,-0.032257,-0.051965,0.101902,0.088485,0.468163,-2.459829,-0.118015,0.204006,0.912430,-0.334551,-16.330957,6.522995,-22.437943,2,0
1352711980.161,0,0.202356,-0.116774,0.106415,0.086719,0.469741,-2.458702,-0.117574,0.204961,0.912162,-0.334855,-16.272369,6.599122,-22.458239,2,0
1352711980.172,0,0.456505,-0.065528,0.128044,0.085382,0.474083,-2.457697,-0.117754,0.207120,0.911564,-0.335091,-16.301126,6.553415,-22.450766,2,0
1352711980.182,0,0.682908,-0.067829,0.359700,0.083422,0.481094,-2.454856,-0.118269,0.210498,0.910375,-0.336037,-16.301126,6.553415,-22.450766,2,0
1352711980.193,0,0.815961,0.047441,0.526948,0.081012,0.489961,-2.449554,-0.119148,0.214651,0.908562,-0.337999,-16.301126,6.553415,-22.450766,2,0
1352711980.204,0,0.815205,0.278977,0.456809,0.081034,0.499186,-2.444507,-0.121182,0.218562,0.906583,-0.340078,-16.225609,6.249089,-22.591797,2,0
1352711980.215,0,0.749738,0.293099,0.318119,0.082566,0.507714,-2.440943,-0.123640,0.221974,0.904827,-0.341656,-16.225609,6.249089,-22.591797,2,0
1352711980.225,0,0.633959,0.242002,0.147895,0.084514,0.515012,-2.439282,-0.125882,0.224863,0.903505,-0.342446,-16.225609,6.249089,-22.591797,2,0
1352711980.236,0,0.468887,0.171732,0.108263,0.085772,0.520755,-2.438329,-0.127483,0.227202,0.902532,-0.342876,-15.981343,5.874171,-22.864857,2,0
1352711980.247,0,0.270803,0.166023,0.167020,0.086832,0.524371,-2.436797,-0.128719,0.228567,0.901737,-0.343598,-15.981343,5.874171,-22.864857,2,0
1352711980.258,0,0.054327,0.097441,0.215284,0.086850,0.525754,-2.434353,-0.129230,0.229035,0.901137,-0.344667,-15.905533,5.771917,-22.943624,2,0
1352711980.268,0,-0.198290,0.036753,0.160503,0.086258,0.524515,-2.431931,-0.129039,0.228417,0.900917,-0.345722,-15.905533,5.771917,-22.943624,2,0
1352711980.279,0,-0.367331,-0.227601,0.023507,0.084034,0.520981,-2.430883,-0.127582,0.227129,0.901331,-0.346031,-15.905533,5.771917,-22.943624,2,0
1352711980.290,0,-0.385391,-0.248081,-0.167885,0.081759,0.516800,-2.431914,-0.125758,0.225687,0.902185,-0.345417,-15.873781,5.935952,-22.923752,2,0
1352711980.301,0,-0.390935,-0.267197,-0.378782,0.079450,0.512066,-2.434914,-0.123608,0.224118,0.903442,-0.343925,-15.984132,6.034711,-22.821056,2,0
1352711980.311,0,-0.343754,-0.310682,-0.545488,0.079044,0.507819,-2.440757,-0.122085,0.222612,0.904998,-0.341346,-15.984132,6.034711,-22.821056,2,0
1352711980.322,0,-0.302319,-0.307621,-0.623603,0.079122,0.503930,-2.447916,-0.120701,0.221258,0.906692,-0.338208,-15.984132,6.034711,-22.821056,2,0
1352711980.333,0,-0.241531,-0.252794,-0.659473,0.080022,0.500647,-2.455631,-0.119736,0.220070,0.908341,-0.334885,-16.326447,6.011312,-22.583672,2,0
1352711980.344,0,-0.248022,-0.199813,-0.627173,0.080683,0.497421,-2.462811,-0.118741,0.218911,0.909895,-0.331768,-16.326447,6.011312,-22.583672,2,0
1352711980.354,0,-0.212882,-0.177499,-0.692899,0.082542,0.494418,-2.470785,-0.118250,0.217699,0.911468,-0.328406,-16.326447,6.011312,-22.583672,2,0
1352711980.365,0,-0.075673,-0.131076,-0.712454,0.085065,0.492489,-2.479456,-0.118162,0.216913,0.912970,-0.324765,-16.608829,5.825313,-22.425953,2,0
1352711980.376,0,0.128443,0.003282,-0.483347,0.087879,0.492782,-2.486369,-0.118742,0.217003,0.913885,-0.321907,-16.608829,5.825313,-22.425953,2,0
1352711980.387,0,0.370780,0.102815,-0.104884,0.090112,0.495884,-2.489094,-0.119932,0.218235,0.913809,-0.320847,-16.691519,5.651721,-22.408976,2,0
1352711980.397,0,0.617251,0.219643,0.223541,0.091510,0.501900,-2.487906,-0.121603,0.220707,0.912789,-0.321430,-16.691519,5.651721,-22.408976,2,0
1352711980.408,0,0.865915,0.418323,0.437591,0.093589,0.510884,-2.484021,-0.124332,0.224263,0.910906,-0.323261,-16.691519,5.651721,-22.408976,2,0
1352711980.419,0,1.047538,0.606647,0.553138,0.097030,0.522238,-2.478738,-0.128208,0.228580,0.908376,-0.325831,-16.517307,5.311307,-22.620331,2,0
1352711980.430,0,1.075554,0.630612,0.595179,0.100830,0.534397,-2.472771,-0.132461,0.233134,0.905559,-0.328732,-17.724089,3.755737,-21.142136,2,0
1352711980.440,0,1.011792,0.579988,0.547773,0.104246,0.546061,-2.467045,-0.136454,0.237512,0.902822,-0.331483,-17.724089,3.755737,-21.142136,2,0
1352711980.451,0,0.871075,0.585524,0.401193,0.108181,0.556290,-2.462697,-0.140309,0.241217,0.900429,-0.333698,-17.724089,3.755737,-21.142136,2,0
1352711980.462,0,0.691526,0.643479,0.175120,0.113971,0.564461,-2.477413,-0.142361,0.245021,0.901316,-0.327608,-17.255461,3.369592,-21.590130,2,0
1352711980.472,0,0.474730,0.648007,-0.025832,0.121227,0.570115,-2.477926,-0.146405,0.246445,0.900078,-0.328162,-17.255461,3.369592,-21.590130,2,0
1352711980.483,0,0.293100,0.613378,-0.150984,0.129093,0.573559,-2.480080,-0.150186,0.246884,0.899356,-0.328103,-17.255461,3.369592,-21.590130,2,0
1352711980.494,0,0.127896,0.526015,-0.173707,0.136412,0.575086,-2.493772,-0.152009,0.247423,0.900811,-0.322822,-16.816204,3.044207,-21.981510,2,0
1352711980.505,0,0.004045,0.254339,-0.113277,0.140877,0.575256,-2.495507,-0.153830,0.246913,0.900725,-0.322590,-16.816204,3.044207,-21.981510,2,0
1352711980.515,0,-0.096339,0.014153,-0.054920,0.142060,0.574375,-2.504328,-0.153149,0.246998,0.902176,-0.318771,-16.683414,2.981555,-22.091007,2,0
1352711980.526,0,-0.144603,-0.094966,-0.035399,0.141352,0.572894,-2.504603,-0.152588,0.246454,0.902489,-0.318578,-16.683414,2.981555,-22.091007,2,0
1352711980.537,0,-0.132346,-0.026025,-0.029787,0.140920,0.571378,-2.504766,-0.152160,0.245842,0.902766,-0.318469,-16.683414,2.981555,-22.091007,2,0
1352711980.548,0,-0.062106,0.062345,-0.018785,0.141428,0.570518,-2.510996,-0.151503,0.245840,0.903839,-0.315728,-16.701403,3.037522,-22.069778,2,0
1352711980.558,0,0.007018,0.067306,-0.015900,0.142324,0.570395,-2.515961,-0.151281,0.246019,0.904570,-0.313594,-16.683033,3.053845,-22.081413,2,0
1352711980.569,0,0.115903,0.082258,-0.042044,0.143485,0.571342,-2.516597,-0.151858,0.246319,0.904445,-0.313440,-16.683033,3.053845,-22.081413,2,0
1352711980.580,0,0.176748,0.069356,-0.079764,0.144953,0.572996,-2.517826,-0.152598,0.246941,0.904287,-0.313048,-16.683033,3.053845,-22.081413,2,0
1352711980.591,0,0.195455,0.053596,-0.072409,0.146272,0.574964,-2.522976,-0.152825,0.248031,0.904704,-0.310862,-16.636976,2.940043,-22.131546,2,0
1352711980.601,0,0.169828,0.036834,-0.105794,0.147506,0.576700,-2.524493,-0.153430,0.248752,0.904593,-0.310313,-16.636976,2.940043,-22.131546,2,0
1352711980.612,0,0.128479,0.026349,-0.177192,0.149084,0.577920,-2.526736,-0.154029,0.249239,0.904641,-0.309484,-16.636976,2.940043,-22.131546,2,0
1352711980.623,0,0.077099,-0.041174,-0.227148,0.150481,0.578534,-2.532849,-0.153981,0.249776,0.905385,-0.306887,-16.625170,2.759817,-22.163601,2,0
1352711980.634,0,0.032685,-0.127174,-0.225765,0.150995,0.578634,-2.535857,-0.153851,0.249975,0.905792,-0.305588,-16.625170,2.759817,-22.163601,2,0
1352711980.644,0,-0.014449,-0.221861,-0.195097,0.150252,0.578214,-2.541055,-0.152809,0.250294,0.906701,-0.303143,-16.665184,2.678558,-22.143507,2,0
1352711980.655,0,-0.057743,-0.298267,-0.181368,0.148400,0.577431,-2.543304,-0.151585,0.250385,0.907297,-0.301897,-16.665184,2.678558,-22.143507,2,0
1352711980.666,0,-0.068853,-0.286187,-0.182550,0.146456,0.576387,-2.545462,-0.150296,0.250361,0.907921,-0.300683,-16.665184,2.678558,-22.143507,2,0
1352711980.677,0,-0.027028,-0.179726,-0.171524,0.144976,0.575752,-2.549682,-0.149013,0.250606,0.908756,-0.298586,-16.865274,2.606346,-22.000168,2,0
1352711980.687,0,0.042967,-0.054015,-0.135649,0.145092,0.575787,-2.553509,-0.148590,0.250890,0.909312,-0.296861,-16.941360,2.571259,-21.945766,2,0
1352711980.698,0,0.109177,0.076473,-0.091164,0.146443,0.576643,-2.554946,-0.149134,0.251190,0.909300,-0.296371,-16.941360,2.571259,-21.945766,2,0
1352711980.709,0,0.137088,0.112457,-0.037988,0.148062,0.577981,-2.555851,-0.149928,0.251634,0.909118,-0.296153,-16.941360,2.571259,-21.945766,2,0
1352711980.720,0,0.141927,0.084548,-0.024754,0.149529,0.579203,-2.558189,-0.150456,0.252156,0.909174,-0.295267,-16.902323,2.457376,-21.988871,2,0
1352711980.730,0,0.146867,0.050673,-0.022587,0.150470,0.580706,-2.558769,-0.151001,0.252753,0.908968,-0.295112,-16.902323,2.457376,-21.988871,2,0
1352711980.741,0,0.138153,0.060279,-0.015201,0.151359,0.582159,-2.559255,-0.151528,0.253328,0.908759,-0.294994,-16.902323,2.457376,-21.988871,2,0
1352711980.752,0,0.133143,0.068684,-0.007805,0.152291,0.583581,-2.559609,-0.152087,0.253873,0.908530,-0.294942,-16.882250,2.318399,-22.019361,2,0
1352711980.763,0,0.113410,0.040823,-0.009407,0.152503,0.584131,-2.559670,-0.152245,0.254099,0.908442,-0.294938,-16.882250,2.318399,-22.019361,2,0
1352711980.773,0,0.129779,0.035061,-0.044884,0.153218,0.585387,-2.560401,-0.152635,0.254628,0.908309,-0.294689,-16.870218,2.290344,-22.031513,2,0
1352711980.784,0,0.129804,0.013296,-0.046310,0.153939,0.586662,-2.561305,-0.153008,0.255178,0.908198,-0.294363,-16.870218,2.290344,-22.031513,2,0
1352711980.795,0,0.135620,-0.022060,-0.003732,0.155241,0.587487,-2.562463,-0.153555,0.255455,0.908146,-0.293998,-16.870218,2.290344,-22.031513,2,0
1352711980.806,0,0.158635,0.013947,0.044514,0.155210,0.589216,-2.562336,-0.153775,0.256246,0.907871,-0.294042,-16.847900,2.179281,-22.059841,2,0
1352711980.816,0,0.170817,0.067094,0.059779,0.155525,0.591095,-2.561910,-0.154208,0.257032,0.907503,-0.294265,-16.847900,2.179281,-22.059841,2,0
1352711980.827,0,0.122798,0.105820,0.041469,0.156389,0.592593,-2.561538,-0.154836,0.257565,0.907157,-0.294536,-16.847900,2.179281,-22.059841,2,0
1352711980.838,0,0.047802,0.080485,0.006478,0.157150,0.593875,-2.561377,-0.155362,0.258031,0.906882,-0.294700,-16.807863,2.096659,-22.098356,2,0
1352711980.849,0,-0.046003,0.091192,0.001103,0.157972,0.593632,-2.561316,-0.155712,0.257792,0.906846,-0.294835,-16.780237,2.074828,-22.121399,2,0
1352711980.859,0,-0.136244,0.087272,0.012764,0.158797,0.592415,-2.560984,-0.155977,0.257085,0.906915,-0.295099,-16.780237,2.074828,-22.121399,2,0
1352711980.870,0,-0.211888,-0.006347,0.055534,0.158404,0.590428,-2.559957,-0.155681,0.256149,0.907092,-0.295524,-16.780237,2.074828,-22.121399,2,0
1352711980.881,0,-0.224382,-0.048844,0.074661,0.157792,0.587776,-2.558920,-0.155202,0.254939,0.907383,-0.295930,-16.736687,2.199390,-22.142347,2,0
1352711980.892,0,-0.208339,-0.083912,0.078110,0.156172,0.585650,-2.557447,-0.154385,0.254086,0.907607,-0.296404,-16.736687,2.199390,-22.142347,2,0
1352711980.902,0,-0.167394,-0.106655,0.057327,0.154426,0.583822,-2.556269,-0.153511,0.253412,0.907837,-0.296728,-16.757418,2.298226,-22.116617,2,0
1352711980.913,0,-0.131616,-0.088440,0.058939,0.152550,0.581647,-2.555112,-0.152528,0.252602,0.908130,-0.297030,-16.757418,2.298226,-22.116617,2,0
1352711980.924,0,-0.085858,-0.068914,0.049600,0.151302,0.580722,-2.554259,-0.151951,0.252296,0.908235,-0.297266,-16.757418,2.298226,-22.116617,2,0
1352711980.935,0,-0.003228,-0.034916,0.058995,0.150429,0.580566,-2.553530,-0.151627,0.252299,0.908216,-0.297488,-16.821741,2.446259,-22.051811,2,0
1352711980.945,0,0.096511,0.067964,0.083830,0.150291,0.581455,-2.552623,-0.151792,0.252659,0.907961,-0.297876,-16.821741,2.446259,-22.051811,2,0
1352711980.956,0,0.187589,0.130872,0.113144,0.150739,0.583182,-2.551425,-0.152369,0.253296,0.907493,-0.298464,-16.821741,2.446259,-22.051811,2,0
1352711980.967,0,0.228125,0.076336,0.141062,0.150990,0.585745,-2.550133,-0.152976,0.254339,0.906902,-0.299063,-16.793154,2.446026,-22.073618,2,0
1352711980.978,0,0.219548,0.009805,0.137944,0.150493,0.588372,-2.548753,-0.153266,0.255515,0.906343,-0.299605,-16.761696,2.403693,-22.102158,2,0
1352711980.988,0,0.209993,-0.005693,0.102219,0.149893,0.590794,-2.547737,-0.153436,0.256640,0.905876,-0.299969,-16.761696,2.403693,-22.102158,2,0
1352711980.999,0,0.195597,0.023640,0.052188,0.147548,0.593007,-2.546027,-0.152881,0.257877,0.905468,-0.300423,-16.761696,2.403693,-22.102158,2,0
1352711981.010,0,0.185871,0.069728,0.031729,0.148104,0.595091,-2.545938,-0.153414,0.258743,0.905100,-0.300516,-16.777750,2.325553,-22.098335,2,0
1352711981.021,0,0.164765,0.160357,0.038562,0.149491,0.596926,-2.545791,-0.154298,0.259366,0.904695,-0.300746,-16.777750,2.325553,-22.098335,2,0
1352711981.031,0,0.129942,0.253257,0.061260,0.151017,0.599344,-2.544966,-0.155408,0.260181,0.904088,-0.301296,-16.735668,2.273165,-22.135666,2,0
1352711981.042,0,0.058097,0.242019,0.087665,0.153240,0.600310,-2.544076,-0.156653,0.260219,0.903634,-0.301979,-16.735668,2.273165,-22.135666,2,0
1352711981.053,0,-0.025737,0.117274,0.081099,0.154168,0.600437,-2.542937,-0.157237,0.260048,0.903370,-0.302613,-16.735668,2.273165,-22.135666,2,0
1352711981.063,0,-0.101794,0.019465,0.030732,0.154214,0.599638,-2.542200,-0.157250,0.259617,0.903376,-0.302959,-16.589716,2.251744,-22.247438,2,0
1352711981.074,0,-0.165290,-0.055162,-0.046284,0.151120,0.597327,-2.540708,-0.155745,0.258910,0.903741,-0.303251,-16.589716,2.251744,-22.247438,2,0
1352711981.085,0,-0.220095,-0.140613,-0.127030,0.150388,0.594940,-2.541726,-0.154972,0.258005,0.904311,-0.302718,-16.589716,2.251744,-22.247438,2,0
1352711981.096,0,-0.266719,-0.116279,-0.162614,0.149818,0.591965,-2.543187,-0.154139,0.256839,0.905022,-0.302010,-16.658199,2.378404,-22.182993,2,0
1352711981.106,0,-0.312430,-0.094619,-0.161469,0.149655,0.588488,-2.544706,-0.153418,0.255384,0.905782,-0.301331,-16.706146,2.431994,-22.141085,2,0
1352711981.117,0,-0.316103,-0.120018,-0.164174,0.148274,0.584197,-2.545618,-0.152118,0.253690,0.906661,-0.300777,-16.706146,2.431994,-22.141085,2,0
1352711981.128,0,-0.282659,-0.116227,-0.176183,0.147888,0.580805,-2.547281,-0.151292,0.252315,0.907440,-0.300002,-16.706146,2.431994,-22.141085,2,0
1352711981.139,0,-0.198482,-0.066245,-0.203380,0.148141,0.578135,-2.549354,-0.150800,0.251205,0.908122,-0.299113,-16.812346,2.572790,-22.044579,2,0
1352711981.149,0,-0.064098,0.001685,-0.184785,0.150170,0.576017,-2.552136,-0.151100,0.250137,0.908694,-0.298119,-16.812346,2.572790,-22.044579,2,0
1352711981.160,0,0.055093,0.043857,-0.121193,0.151585,0.576053,-2.553986,-0.151516,0.250083,0.908857,-0.297455,-16.818478,2.572373,-22.039948,2,0
1352711981.171,0,0.184084,0.090829,-0.048922,0.153087,0.577559,-2.555131,-0.152248,0.250641,0.908693,-0.297114,-16.818478,2.572373,-22.039948,2,0
1352711981.182,0,0.281090,0.042213,0.016145,0.153965,0.580270,-2.555574,-0.152937,0.251793,0.908294,-0.297007,-16.818478,2.572373,-22.039948,2,0
1352711981.192,0,0.372080,0.055442,0.059689,0.156864,0.584424,-2.556934,-0.154609,0.253379,0.907659,-0.296732,-16.781693,2.433011,-22.083769,2,0
1352711981.203,0,0.407577,0.116999,0.091099,0.157861,0.588796,-2.556699,-0.155645,0.255225,0.906896,-0.296941,-16.781693,2.433011,-22.083769,2,0
1352711981.214,0,0.418177,0.077888,0.152050,0.158378,0.593467,-2.555843,-0.156580,0.257230,0.906028,-0.297369,-16.781693,2.433011,-22.083769,2,0
1352711981.225,0,0.356207,-0.008365,0.183948,0.157752,0.597762,-2.554352,-0.157033,0.259179,0.905207,-0.297936,-16.683102,2.174319,-22.185221,2,0
1352711981.235,0,0.276325,-0.151057,0.150292,0.155739,0.601160,-2.552880,-0.156745,0.260924,0.904630,-0.298318,-16.680641,2.094201,-22.194775,2,0
1352711981.246,0,0.190555,-0.299588,0.084697,0.152378,0.603605,-2.551942,-0.155659,0.262474,0.904381,-0.298283,-16.680641,2.094201,-22.194775,2,0
1352711981.257,0,0.092312,-0.391366,0.029350,0.148153,0.604939,-2.551643,-0.153958,0.263693,0.904460,-0.297851,-16.680641,2.094201,-22.194775,2,0
1352711981.268,0,0.018565,-0.380373,-0.010198,0.144058,0.605364,-2.551732,-0.152149,0.264504,0.904722,-0.297266,-16.892382,2.015403,-22.041397,2,0
1352711981.278,0,-0.008468,-0.209686,-0.036962,0.141493,0.605273,-2.552121,-0.150925,0.264872,0.904988,-0.296751,-16.892382,2.015403,-22.041397,2,0
1352711981.289,0,0.049824,-0.035071,-0.077865,0.141259,0.605544,-2.553047,-0.150731,0.265101,0.905102,-0.296298,-16.999405,2.007674,-21.959669,2,0
1352711981.300,0,0.126495,0.046283,-0.096244,0.142501,0.606552,-2.554503,-0.151229,0.265489,0.905070,-0.295793,-16.999405,2.007674,-21.959669,2,0
1352711981.311,0,0.168294,0.013557,-0.073016,0.143479,0.608101,-2.555837,-0.151691,0.266156,0.904957,-0.295303,-16.999405,2.007674,-21.959669,2,0
1352711981.321,0,0.253717,0.046607,-0.100362,0.144766,0.610409,-2.557440,-0.152353,0.267147,0.904742,-0.294726,-17.007435,1.892114,-21.963715,2,0
1352711981.332,0,0.344116,0.103904,-0.133577,0.147002,0.613617,-2.559719,-0.153463,0.268463,0.904413,-0.293963,-16.994202,1.774976,-21.983727,2,0
1352711981.343,0,0.377518,0.185117,-0.146097,0.150208,0.617364,-2.562345,-0.155029,0.269913,0.903971,-0.293172,-16.994202,1.774976,-21.983727,2,0
1352711981.354,0,0.329035,0.239207,-0.112821,0.154036,0.620861,-2.564655,-0.156880,0.271136,0.903465,-0.292616,-16.994202,1.774976,-21.983727,2,0
1352711981.364,0,0.220061,0.229026,-0.076834,0.157545,0.623373,-2.566363,-0.158544,0.271909,0.903044,-0.292302,-16.868277,1.458902,-22.103630,2,0
1352711981.375,0,0.072415,0.228124,0.003101,0.160261,0.624551,-2.566846,-0.159849,0.272090,0.902713,-0.292445,-16.868277,1.458902,-22.103630,2,0
1352711981.386,0,-0.007012,0.220361,0.049090,0.162346,0.624694,-2.566305,-0.160881,0.271808,0.902444,-0.292971,-16.868277,1.458902,-22.103630,2,0
1352711981.397,0,-0.036843,0.255235,0.068829,0.164384,0.624483,-2.565388,-0.161899,0.271338,0.902179,-0.293663,-16.706945,1.409787,-22.228992,2,0
1352711981.407,0,-0.000920,0.323182,0.051302,0.167241,0.624433,-2.564593,-0.163289,0.270830,0.901838,-0.294409,-16.706945,1.409787,-22.228992,2,0
1352711981.418,0,0.077059,0.361028,0.027630,0.170823,0.625067,-2.564277,-0.165024,0.270567,0.901397,-0.295033,-16.601021,1.434291,-22.306648,2,0
1352711981.429,0,0.199539,0.395391,-0.003149,0.174003,0.625033,-2.563904,-0.166503,0.270051,0.901083,-0.295631,-16.601021,1.434291,-22.306648,2,0
1352711981.440,0,0.292345,0.306204,-0.019329,0.178156,0.627915,-2.564778,-0.168607,0.270830,0.900407,-0.295788,-16.601021,1.434291,-22.306648,2,0
1352711981.450,0,0.271481,0.151345,-0.023336,0.180759,0.630823,-2.565708,-0.170005,0.271856,0.899859,-0.295714,-16.358330,1.364311,-22.489582,2,0
1352711981.461,0,0.149673,0.007391,-0.063385,0.181886,0.632660,-2.566843,-0.170579,0.272627,0.899636,-0.295352,-16.303278,1.263229,-22.535418,2,0
1352711981.472,0,0.033271,-0.141038,-0.157327,0.177999,0.632157,-2.566386,-0.168832,0.272932,0.899979,-0.295029,-16.303278,1.263229,-22.535418,2,0
1352711981.483,0,-0.070941,-0.185467,-0.239222,0.177549,0.631317,-2.569144,-0.168152,0.272846,0.900557,-0.293730,-16.303278,1.263229,-22.535418,2,0
1352711981.493,0,-0.255953,-0.050183,-0.272179,0.178457,0.628652,-2.572203,-0.167824,0.271748,0.901356,-0.292483,-16.449247,1.222467,-22.431351,2,0
1352711981.504,0,-0.470027,-0.035305,-0.221905,0.179347,0.623790,-2.574276,-0.167363,0.269562,0.902357,-0.291679,-16.449247,1.222467,-22.431351,2,0
1352711981.515,0,-0.716232,-0.372700,-0.145682,0.176683,0.615778,-2.574779,-0.165134,0.266314,0.903915,-0.291110,-16.449247,1.222467,-22.431351,2,0
1352711981.526,0,-0.911971,-0.822894,-0.182888,0.168649,0.606044,-2.574786,-0.160326,0.263006,0.906082,-0.290067,-16.617941,1.526295,-22.287933,2,0
1352711981.536,0,-0.678017,-0.752160,-0.533588,0.162284,0.597248,-2.578633,-0.155872,0.260179,0.908485,-0.287518,-16.617941,1.526295,-22.287933,2,0
1352711981.547,0,-0.143057,-0.327564,-0.875502,0.163096,0.592881,-2.588399,-0.154451,0.258806,0.910475,-0.283195,-16.914522,1.722376,-22.049263,2,0
1352711981.558,0,0.252939,-0.119991,-0.846660,0.167866,0.593056,-2.599920,-0.155153,0.259109,0.911698,-0.278564,-16.914522,1.722376,-22.049263,2,0
1352711981.569,0,0.487746,-0.024432,-0.594450,0.172655,0.596535,-2.609383,-0.156504,0.260793,0.912107,-0.274873,-16.914522,1.722376,-22.049263,2,0
1352711981.579,0,0.535507,0.095639,-0.277011,0.176624,0.601490,-2.615157,-0.158113,0.262997,0.911828,-0.272769,-17.103600,1.216005,-21.936859,2,0
1352711981.590,0,0.434643,0.149426,-0.044391,0.179526,0.606264,-2.617501,-0.159654,0.264996,0.911181,-0.272096,-17.076160,0.951821,-21.971264,2,0
1352711981.601,0,0.269794,0.025107,0.034298,0.180461,0.609578,-2.617935,-0.160387,0.266436,0.910652,-0.272032,-17.076160,0.951821,-21.971264,2,0
1352711981.612,0,0.140910,-0.078785,-0.024984,0.180059,0.611355,-2.618406,-0.160337,0.267350,0.910471,-0.271769,-17.076160,0.951821,-21.971264,2,0
1352711981.622,0,0.041369,-0.093160,-0.078400,0.179681,0.611937,-2.619423,-0.160093,0.267752,0.910549,-0.271257,-17.068611,0.770446,-21.984232,2,0
1352711981.633,0,-0.004186,-0.095580,-0.093400,0.179315,0.611791,-2.620596,-0.159753,0.267827,0.910760,-0.270673,-17.068611,0.770446,-21.984232,2,0
1352711981.644,0,0.030361,-0.008385,-0.096058,0.179700,0.611789,-2.621889,-0.159755,0.267878,0.910904,-0.270136,-17.068611,0.770446,-21.984232,2,0
1352711981.655,0,0.112943,0.141759,-0.089266,0.181651,0.612581,-2.623312,-0.160539,0.268095,0.910816,-0.269752,-17.104317,0.701895,-21.958763,2,0
1352711981.665,0,0.190252,0.245636,-0.041285,0.184668,0.614282,-2.624442,-0.161945,0.268565,0.910459,-0.269648,-17.104317,0.701895,-21.958763,2,0
1352711981.676,0,0.216941,0.296149,0.009568,0.188072,0.616550,-2.624994,-0.163664,0.269199,0.909901,-0.269864,-17.036264,0.629685,-22.013786,2,0
1352711981.687,0,0.182330,0.303302,0.013096,0.191460,0.618632,-2.625251,-0.165393,0.269726,0.909328,-0.270214,-17.036264,0.629685,-22.013786,2,0
1352711981.697,0,0.143306,0.314493,-0.043387,0.195257,0.620251,-2.625983,-0.167193,0.270021,0.908855,-0.270403,-17.036264,0.629685,-22.013786,2,0
1352711981.708,0,0.095649,0.263949,-0.096818,0.199077,0.621187,-2.627374,-0.168840,0.270054,0.908573,-0.270293,-16.822056,0.493081,-22.181364,2,0
1352711981.719,0,0.108252,0.173412,-0.119627,0.202224,0.621981,-2.629134,-0.170116,0.270145,0.908418,-0.269925,-16.822056,0.493081,-22.181364,2,0
1352711981.730,0,0.150009,0.074089,-0.087214,0.204238,0.623241,-2.630754,-0.170944,0.270594,0.908263,-0.269472,-16.822056,0.493081,-22.181364,2,0
1352711981.740,0,0.157044,0.021768,-0.041107,0.205206,0.624797,-2.631831,-0.171399,0.271275,0.908077,-0.269127,-16.685514,0.357095,-22.286850,2,0
1352711981.751,0,0.098373,-0.023651,0.034061,0.205188,0.626106,-2.632009,-0.171503,0.271897,0.907892,-0.269055,-16.678051,0.291766,-22.293388,2,0
1352711981.762,0,0.024442,-0.043062,0.017506,0.204688,0.626608,-2.631824,-0.171354,0.272180,0.907829,-0.269075,-16.678051,0.291766,-22.293388,2,0
1352711981.773,0,0.001272,-0.025941,-0.016777,0.204442,0.626599,-2.631958,-0.171223,0.272220,0.907870,-0.268981,-16.678051,0.291766,-22.293388,2,0
1352711981.783,0,0.033716,-0.019546,-0.055718,0.204589,0.626761,-2.632623,-0.171216,0.272333,0.907921,-0.268700,-16.699881,0.269619,-22.277317,2,0
1352711981.794,0,0.109992,-0.023223,-0.023436,0.204739,0.627606,-2.633250,-0.171287,0.272756,0.907856,-0.268443,-16.699881,0.269619,-22.277317,2,0
1352711981.805,0,0.199928,-0.029228,0.000333,0.204797,0.629473,-2.633826,-0.171427,0.273660,0.907628,-0.268205,-16.707214,0.234427,-22.272215,2,0
1352711981.816,0,0.255129,0.000878,0.038918,0.205816,0.631131,-2.634697,-0.171942,0.274364,0.907390,-0.267964,-16.707214,0.234427,-22.272215,2,0
1352711981.826,0,0.258384,0.027155,0.088179,0.205919,0.634044,-2.634409,-0.172328,0.275670,0.906870,-0.268133,-16.707214,0.234427,-22.272215,2,0
1352711981.837,0,0.221228,-0.026272,0.104607,0.205340,0.636755,-2.633733,-0.172439,0.276940,0.906389,-0.268382,-16.696110,0.096384,-22.281569,2,0
1352711981.848,0,0.114135,-0.058949,0.069359,0.202329,0.639432,-2.631856,-0.171612,0.278418,0.905959,-0.268834,-16.696110,0.096384,-22.281569,2,0
1352711981.859,0,0.032248,-0.091144,-0.024536,0.201547,0.639949,-2.631961,-0.171297,0.278770,0.905955,-0.268681,-16.696110,0.096384,-22.281569,2,0
1352711981.869,0,0.001982,-0.089525,-0.093304,0.201222,0.639907,-2.633049,-0.170993,0.278887,0.906136,-0.268143,-16.760805,0.028762,-22.233131,2,0
1352711981.880,0,-0.012856,-0.059319,-0.093116,0.201178,0.639595,-2.634260,-0.170772,0.278853,0.906353,-0.267586,-16.792471,0.003627,-22.209244,2,0
1352711981.891,0,0.006712,-0.000124,-0.075299,0.201561,0.639757,-2.635299,-0.170818,0.278965,0.906433,-0.267169,-16.792471,0.003627,-22.209244,2,0
1352711981.902,0,0.032302,0.086803,-0.042491,0.202684,0.639954,-2.635933,-0.171258,0.278960,0.906389,-0.267040,-16.792471,0.003627,-22.209244,2,0
1352711981.912,0,0.045160,0.128386,-0.103275,0.204675,0.640234,-2.637134,-0.172022,0.278927,0.906333,-0.266776,-16.775255,-0.048516,-22.222197,2,0
1352711981.923,0,0.047466,0.138923,-0.225659,0.207782,0.640283,-2.639850,-0.173056,0.278770,0.906418,-0.265978,-16.775255,-0.048516,-22.222197,2,0
1352711981.934,0,0.008228,0.162028,-0.258748,0.208181,0.640081,-2.641277,-0.173018,0.278747,0.906607,-0.265385,-16.726696,-0.109728,-22.258553,2,0
1352711981.945,0,-0.001905,0.156961,-0.229458,0.211754,0.639536,-2.644425,-0.174145,0.278296,0.906803,-0.264451,-16.726696,-0.109728,-22.258553,2,0
1352711981.955,0,-0.014757,0.152901,-0.172002,0.214839,0.639010,-2.646798,-0.175161,0.277852,0.906933,-0.263798,-16.726696,-0.109728,-22.258553,2,0
1352711981.966,0,-0.063206,0.116252,-0.135892,0.218418,0.638584,-2.649208,-0.176408,0.277396,0.907006,-0.263197,-16.660948,-0.203490,-22.307152,2,0
1352711981.977,0,-0.155633,0.059301,-0.152908,0.220092,0.636869,-2.650731,-0.176788,0.276518,0.907339,-0.262717,-16.602491,-0.236062,-22.350372,2,0
1352711981.988,0,-0.193424,0.041448,-0.207202,0.221784,0.634419,-2.652722,-0.177041,0.275340,0.907851,-0.262014,-16.602491,-0.236062,-22.350372,2,0
1352711981.998,0,-0.155096,0.046416,-0.213047,0.223652,0.632139,-2.655036,-0.177350,0.274246,0.908359,-0.261189,-16.602491,-0.236062,-22.350372,2,0
1352711982.009,0,-0.098703,0.083746,-0.169486,0.226157,0.630212,-2.657382,-0.177980,0.273236,0.908756,-0.260437,-16.564251,-0.220565,-22.378885,2,0
1352711982.020,0,-0.092759,0.089628,-0.143671,0.228061,0.628879,-2.658970,-0.178501,0.272513,0.909009,-0.259955,-16.564251,-0.220565,-22.378885,2,0
1352711982.031,0,-0.109923,0.067902,-0.156226,0.229833,0.627429,-2.660622,-0.178943,0.271760,0.909300,-0.259422,-16.564251,-0.220565,-22.378885,2,0
1352711982.041,0,-0.166382,0.075305,-0.195702,0.231750,0.625417,-2.662579,-0.179358,0.270755,0.909707,-0.258758,-16.497271,-0.228379,-22.428230,2,0
1352711982.052,0,-0.226168,0.053951,-0.277108,0.232242,0.621665,-2.664214,-0.179006,0.269099,0.910479,-0.258015,-16.497271,-0.228379,-22.428230,2,0
1352711982.063,0,-0.215475,-0.003470,-0.365769,0.234790,0.618496,-2.668107,-0.179346,0.267650,0.911259,-0.256526,-16.497908,-0.186149,-22.428154,2,0
1352711982.074,0,-0.128993,-0.077058,-0.365919,0.236450,0.615914,-2.672306,-0.179301,0.266616,0.912059,-0.254784,-16.497908,-0.186149,-22.428154,2,0
1352711982.084,0,-0.012010,-0.021372,-0.332840,0.238586,0.614669,-2.676628,-0.179585,0.266154,0.912615,-0.253072,-16.497908,-0.186149,-22.428154,2,0
1352711982.095,0,-0.004060,0.022888,-0.257666,0.242081,0.613043,-2.680909,-0.180464,0.265343,0.913099,-0.251548,-16.514330,-0.275850,-22.415138,2,0
1352711982.106,0,-0.025573,0.029686,-0.198938,0.243914,0.612269,-2.683573,-0.180878,0.264994,0.913391,-0.250557,-16.486526,-0.339912,-22.434719,2,0
1352711982.117,0,-0.043124,0.006441,-0.167411,0.245226,0.611408,-2.685691,-0.181120,0.264621,0.913674,-0.249744,-16.486526,-0.339912,-22.434719,2,0
1352711982.127,0,-0.045769,-0.036063,-0.144546,0.246032,0.610512,-2.687452,-0.181176,0.264263,0.913962,-0.249025,-16.486526,-0.339912,-22.434719,2,0
1352711982.138,0,-0.046082,-0.191224,-0.098208,0.245499,0.610025,-2.688901,-0.180698,0.264234,0.914268,-0.248281,-16.490948,-0.404978,-22.430386,2,0
1352711982.149,0,-0.086103,-0.346631,-0.030067,0.242337,0.609176,-2.689267,-0.179129,0.264263,0.914732,-0.247676,-16.490948,-0.404978,-22.430386,2,0
1352711982.160,0,-0.132451,-0.419877,0.049819,0.237542,0.607941,-2.688505,-0.176926,0.264214,0.915259,-0.247363,-16.490948,-0.404978,-22.430386,2,0
1352711982.170,0,-0.132191,-0.508998,0.166593,0.231150,0.606847,-2.686405,-0.174179,0.264311,0.915732,-0.247458,-16.741421,-0.338600,-22.245174,2,0
1352711982.181,0,-0.142617,-0.653435,0.236224,0.226470,0.602801,-2.685261,-0.171820,0.262906,0.916629,-0.247285,-16.741421,-0.338600,-22.245174,2,0
1352711982.192,0,-0.131349,-0.770681,0.226635,0.216509,0.601908,-2.681871,-0.167617,0.263435,0.917194,-0.247513,-16.891787,-0.215743,-22.132750,2,0
1352711982.203,0,-0.080225,-0.839152,0.174868,0.206210,0.601389,-2.679240,-0.163192,0.264250,0.917800,-0.247353,-16.891787,-0.215743,-22.132750,2,0
1352711982.213,0,-0.064695,-0.873648,0.096248,0.195877,0.600914,-2.677561,-0.158625,0.265170,0.918497,-0.246750,-16.891787,-0.215743,-22.132750,2,0
1352711982.224,0,-0.074393,-0.820276,0.072182,0.186246,0.600290,-2.676459,-0.154287,0.265979,0.919211,-0.245971,-17.467295,-0.046349,-21.682459,2,0
1352711982.235,0,-0.117471,-0.706502,0.048470,0.177862,0.599327,-2.675549,-0.150460,0.266490,0.919886,-0.245266,-17.749483,-0.000664,-21.452118,2,0
1352711982.246,0,-0.184724,-0.618765,0.107666,0.170028,0.597682,-2.673982,-0.146904,0.266567,0.920527,-0.244932,-17.749483,-0.000664,-21.452118,2,0
1352711982.256,0,-0.304652,-0.418263,0.111233,0.163757,0.595057,-2.671940,-0.144030,0.265964,0.921131,-0.245025,-17.749483,-0.000664,-21.452118,2,0
1352711982.267,0,-0.509572,-0.139125,0.085608,0.160360,0.590427,-2.669836,-0.142282,0.264071,0.921813,-0.245527,-18.118593,0.211634,-21.140232,2,0
1352711982.278,0,-0.591206,-0.074070,0.096733,0.158272,0.584391,-2.667526,-0.141015,0.261348,0.922577,-0.246298,-18.118593,0.211634,-21.140232,2,0
1352711982.288,0,-0.521177,-0.120179,0.140833,0.156207,0.579552,-2.665113,-0.139886,0.259175,0.923140,-0.247129,-18.118593,0.211634,-21.140232,2,0
1352711982.299,0,-0.399296,-0.099612,0.180968,0.153398,0.575231,-2.662034,-0.138543,0.257291,0.923588,-0.248177,-18.177969,0.626816,-21.080942,2,0
1352711982.310,0,-0.271866,-0.041030,0.149216,0.151330,0.572263,-2.659470,-0.137611,0.255985,0.923845,-0.249090,-18.177969,0.626816,-21.080942,2,0
1352711982.321,0,-0.213275,0.165276,0.071866,0.149335,0.570008,-2.656655,-0.136814,0.254988,0.923957,-0.250133,-18.201605,0.788888,-21.055090,2,0
1352711982.331,0,-0.207620,0.348605,-0.021952,0.152394,0.567729,-2.656240,-0.138041,0.253512,0.924024,-0.250710,-18.201605,0.788888,-21.055090,2,0
1352711982.342,0,-0.188944,0.454063,-0.046587,0.157149,0.565573,-2.656398,-0.139992,0.251919,0.924024,-0.251233,-18.201605,0.788888,-21.055090,2,0
1352711982.353,0,-0.159400,0.460109,-0.036551,0.162209,0.563738,-2.656543,-0.142121,0.250435,0.923950,-0.251794,-18.042414,0.964637,-21.184391,2,0
1352711982.364,0,-0.143460,0.444315,-0.023117,0.165016,0.562002,-2.655528,-0.143363,0.249198,0.923871,-0.252605,-17.885588,1.008861,-21.314913,2,0
1352711982.374,0,-0.096716,0.386190,0.001131,0.169297,0.560790,-2.655373,-0.145234,0.248078,0.923717,-0.253202,-17.885588,1.008861,-21.314913,2,0
1352711982.385,0,-0.034928,0.279869,0.002978,0.172491,0.560259,-2.655201,-0.146676,0.247412,0.923538,-0.253674,-17.885588,1.008861,-21.314913,2,0
1352711982.396,0,-0.003902,0.190506,-0.008683,0.174789,0.560147,-2.655209,-0.147724,0.247069,0.923386,-0.253953,-17.674194,1.084498,-21.486841,2,0
1352711982.407,0,-0.000028,0.128917,-0.023920,0.174670,0.560235,-2.654518,-0.147764,0.247075,0.923295,-0.254258,-17.674194,1.084498,-21.486841,2,0
1352711982.417,0,-0.002290,0.077037,-0.044012,0.175863,0.560146,-2.655033,-0.148241,0.246919,0.923285,-0.254167,-17.674194,1.084498,-21.486841,2,0
1352711982.428,0,0.003937,0.094036,-0.051167,0.177110,0.560077,-2.655640,-0.148735,0.246774,0.923279,-0.254040,-17.618181,1.082973,-21.532867,2,0
1352711982.439,0,0.002819,0.222427,-0.075713,0.178851,0.557403,-2.656079,-0.149209,0.245335,0.923589,-0.254029,-17.618181,1.082973,-21.532867,2,0
1352711982.450,0,-0.023309,0.388014,-0.064544,0.183069,0.557069,-2.656944,-0.151016,0.244708,0.923430,-0.254143,-17.576031,1.118198,-21.565491,2,0
1352711982.460,0,0.015812,0.424101,-0.022323,0.187854,0.557077,-2.657352,-0.153176,0.244134,0.923117,-0.254540,-17.576031,1.118198,-21.565491,2,0
1352711982.471,0,0.055294,0.419326,-0.018450,0.192467,0.557506,-2.657642,-0.155313,0.243769,0.922737,-0.254974,-17.576031,1.118198,-21.565491,2,0
1352711982.482,0,0.088888,0.480108,-0.050752,0.196959,0.559121,-2.657923,-0.157515,0.243974,0.922188,-0.255412,-17.300213,1.088303,-21.788891,2,0
1352711982.493,0,0.077931,0.568554,-0.074502,0.203403,0.559851,-2.658960,-0.160433,0.243574,0.921703,-0.255729,-17.300213,1.088303,-21.788891,2,0
1352711982.503,0,0.023760,0.541931,-0.091004,0.209965,0.560039,-2.660168,-0.163328,0.242920,0.921299,-0.255974,-17.300213,1.088303,-21.788891,2,0
1352711982.514,0,0.006522,0.518935,-0.094997,0.216228,0.559930,-2.661339,-0.166059,0.242163,0.920949,-0.256192,-16.947515,0.997217,-22.068642,2,0
1352711982.525,0,0.066984,0.372597,-0.080051,0.220858,0.560392,-2.662220,-0.168130,0.241860,0.920607,-0.256355,-16.776012,0.969201,-22.200533,2,0
1352711982.536,0,0.206845,-0.026200,-0.090227,0.222420,0.561991,-2.663708,-0.168826,0.242533,0.920432,-0.255890,-16.776012,0.969201,-22.200533,2,0
1352711982.546,0,0.365388,-0.200931,-0.133744,0.221885,0.565125,-2.666192,-0.168584,0.244276,0.920334,-0.254742,-16.776012,0.969201,-22.200533,2,0
1352711982.557,0,0.464099,-0.087008,-0.132084,0.221486,0.570592,-2.668841,-0.168605,0.247105,0.919897,-0.253577,-16.779554,0.732772,-22.206919,2,0
1352711982.568,0,0.423342,0.055700,-0.140815,0.223387,0.574938,-2.671761,-0.169535,0.249141,0.919458,-0.252553,-16.779554,0.732772,-22.206919,2,0
1352711982.579,0,0.260517,0.118390,-0.164507,0.226009,0.577760,-2.674570,-0.170657,0.250367,0.919167,-0.251644,-16.793163,0.521572,-22.202595,2,0
1352711982.589,0,0.085240,0.257214,-0.181447,0.229803,0.578647,-2.677190,-0.172156,0.250530,0.919037,-0.250933,-16.793163,0.521572,-22.202595,2,0
1352711982.600,0,-0.013947,0.302653,-0.138762,0.234072,0.578347,-2.679143,-0.173845,0.250024,0.918958,-0.250564,-16.793163,0.521572,-22.202595,2,0
1352711982.611,0,-0.045286,0.195724,-0.078703,0.239383,0.576905,-2.681422,-0.175868,0.248884,0.918996,-0.250146,-16.647154,0.328554,-22.315956,2,0
1352711982.622,0,-0.024631,0.050205,-0.013758,0.240390,0.576470,-2.681717,-0.176254,0.248581,0.919010,-0.250126,-16.544155,0.314180,-22.392628,2,0
1352711982.632,0,-0.013985,-0.072375,0.047648,0.239793,0.576443,-2.681236,-0.176037,0.248600,0.919006,-0.250272,-16.544155,0.314180,-22.392628,2,0
1352711982.643,0,-0.037669,-0.346123,0.091523,0.236357,0.576301,-2.680156,-0.174579,0.248870,0.919194,-0.250338,-16.544155,0.314180,-22.392628,2,0
1352711982.654,0,-0.073431,-0.954923,0.127329,0.227078,0.575997,-2.678460,-0.170496,0.249741,0.919828,-0.249954,-16.680660,0.362530,-22.290396,2,0
1352711982.665,0,-0.204105,-1.532343,0.142020,0.210684,0.574519,-2.676197,-0.163094,0.250907,0.921133,-0.248916,-16.680660,0.362530,-22.290396,2,0
1352711982.675,0,-0.386708,-1.484239,0.121747,0.192733,0.571395,-2.673711,-0.154831,0.251478,0.922713,-0.247763,-16.680660,0.362530,-22.290396,2,0
1352711982.686,0,-0.716062,-1.038153,0.052803,0.179123,0.564669,-2.671355,-0.148179,0.249836,0.924435,-0.247071,-17.635759,0.625283,-21.536633,2,0
1352711982.697,0,-0.543424,-0.703910,0.056947,0.169619,0.558184,-2.669311,-0.143389,0.247824,0.925809,-0.246780,-17.635759,0.625283,-21.536633,2,0
1352711982.708,0,-0.156991,-0.324255,0.038320,0.164594,0.555638,-2.668244,-0.140937,0.247175,0.926398,-0.246634,-17.934681,0.866111,-21.279911,2,0
1352711982.718,0,0.104678,-0.086526,0.034769,0.163036,0.556227,-2.667953,-0.140310,0.247623,0.926388,-0.246579,-17.934681,0.866111,-21.279911,2,0
1352711982.729,0,0.201344,0.048545,0.126030,0.162753,0.558367,-2.667094,-0.140504,0.248600,0.925997,-0.246955,-17.934681,0.866111,-21.279911,2,0
1352711982.740,0,0.145834,0.169715,0.251754,0.162961,0.560566,-2.664657,-0.141127,0.249432,0.925366,-0.248121,-18.053839,0.902800,-21.177382,2,0
1352711982.751,0,-0.034154,0.235114,0.354151,0.163117,0.561318,-2.660514,-0.141793,0.249472,0.924731,-0.250060,-17.995049,0.929812,-21.226192,2,0
1352711982.761,0,-0.219189,0.228781,0.333361,0.163104,0.560073,-2.655832,-0.142241,0.248559,0.924323,-0.252217,-17.995049,0.929812,-21.226192,2,0
1352711982.772,0,-0.276614,0.240022,0.263292,0.163153,0.557837,-2.651568,-0.142558,0.247204,0.924099,-0.254183,-17.995049,0.929812,-21.226192,2,0
1352711982.783,0,-0.156239,0.285556,0.192177,0.164477,0.556115,-2.648544,-0.143361,0.246013,0.923864,-0.255735,-17.825964,1.240164,-21.352625,2,0
1352711982.794,0,0.040572,0.362636,0.132847,0.167216,0.556289,-2.646677,-0.144874,0.245609,0.923403,-0.256935,-17.825964,1.240164,-21.352625,2,0
1352711982.804,0,0.176564,0.237228,0.121493,0.170088,0.556489,-2.645724,-0.146338,0.245264,0.923042,-0.257728,-17.825964,1.240164,-21.352625,2,0
1352711982.815,0,0.131919,-0.001446,0.159439,0.169876,0.558382,-2.644232,-0.146624,0.246066,0.922595,-0.258402,-17.622990,1.312340,-21.516171,2,0
1352711982.826,0,-0.016518,-0.115760,0.196673,0.167685,0.558986,-2.641977,-0.145956,0.246467,0.922377,-0.259175,-17.622990,1.312340,-21.516171,2,0
1352711982.837,0,-0.162934,-0.108191,0.276693,0.164683,0.558007,-2.638526,-0.144891,0.246149,0.922287,-0.260393,-17.640799,1.341301,-21.499784,2,0
1352711982.847,0,-0.210439,-0.084553,0.341538,0.162642,0.556568,-2.634742,-0.144259,0.245470,0.922145,-0.261881,-17.640799,1.341301,-21.499784,2,0
1352711982.858,0,-0.145444,0.081045,0.381439,0.160291,0.555468,-2.629745,-0.143666,0.244906,0.921814,-0.263893,-17.640799,1.341301,-21.499784,2,0
1352711982.869,0,-0.008836,0.327891,0.416404,0.160491,0.555717,-2.624554,-0.144421,0.244622,0.921076,-0.266310,-17.646366,1.622867,-21.475792,2,0
1352711982.879,0,0.160394,0.463880,0.400322,0.162622,0.557679,-2.619734,-0.146212,0.244901,0.919998,-0.268793,-17.524988,1.739820,-21.565840,2,0
1352711982.890,0,0.291643,0.535873,0.354021,0.164885,0.560464,-2.615091,-0.148137,0.245550,0.918806,-0.271212,-17.524988,1.739820,-21.565840,2,0
1352711982.901,0,0.407722,0.755203,0.338383,0.170480,0.565058,-2.611637,-0.151653,0.246666,0.917255,-0.273498,-17.524988,1.739820,-21.565840,2,0
1352711982.912,0,0.477751,0.987451,0.363006,0.178676,0.570622,-2.608189,-0.156468,0.247859,0.915339,-0.276112,-17.081924,1.743296,-21.918173,2,0
1352711982.922,0,0.493849,1.094026,0.350614,0.188378,0.576545,-2.604826,-0.161994,0.248993,0.913227,-0.278885,-17.081924,1.743296,-21.918173,2,0
1352711982.933,0,0.448559,1.097868,0.305049,0.198650,0.582057,-2.602020,-0.167655,0.249878,0.911164,-0.281483,-17.081924,1.743296,-21.918173,2,0
1352711982.944,0,0.362582,1.047202,0.256282,0.208815,0.586728,-2.599640,-0.173107,0.250400,0.909256,-0.283879,-16.297606,1.587510,-22.519001,2,0
1352711982.955,0,0.294090,0.845454,0.195201,0.217437,0.590478,-2.597769,-0.177681,0.250743,0.907661,-0.285847,-16.297606,1.587510,-22.519001,2,0
1352711982.965,0,0.233161,0.653526,0.115884,0.224158,0.593245,-2.596643,-0.181181,0.250958,0.906471,-0.287234,-15.945663,1.527349,-22.773682,2,0
1352711982.976,0,0.147129,0.492685,0.080798,0.229523,0.595255,-2.596039,-0.183912,0.251059,0.905584,-0.288206,-15.945663,1.527349,-22.773682,2,0
1352711982.987,0,0.085627,0.273676,0.068599,0.232819,0.596488,-2.595433,-0.185618,0.251097,0.905001,-0.288912,-15.945663,1.527349,-22.773682,2,0
1352711982.998,0,0.043785,-0.043393,0.073989,0.232778,0.597177,-2.594732,-0.185764,0.251356,0.904796,-0.289234,-15.558536,1.453912,-23.044647,2,0
1352711983.008,0,-0.000628,-0.285501,0.083729,0.229342,0.595168,-2.593568,-0.184130,0.250818,0.905257,-0.289301,-15.578088,1.503252,-23.028265,2,0
1352711983.019,0,-0.043740,-0.359342,0.076659,0.225028,0.594975,-2.592516,-0.182288,0.251257,0.905530,-0.289234,-15.578088,1.503252,-23.028265,2,0
1352711983.030,0,-0.073445,-0.381251,0.086074,0.220297,0.594472,-2.591289,-0.180243,0.251597,0.905860,-0.289189,-15.578088,1.503252,-23.028265,2,0
1352711983.041,0,-0.072239,-0.404267,0.089548,0.213447,0.592566,-2.588913,-0.177220,0.251496,0.906421,-0.289384,-15.835711,1.578776,-22.846781,2,0
1352711983.051,0,-0.078118,-0.408888,0.056396,0.208436,0.591910,-2.587843,-0.175008,0.251823,0.906808,-0.289233,-15.835711,1.578776,-22.846781,2,0
1352711983.062,0,-0.056843,-0.383198,0.022464,0.203917,0.591264,-2.587263,-0.172957,0.252128,0.907216,-0.288922,-15.835711,1.578776,-22.846781,2,0
1352711983.073,0,0.006466,-0.387627,-0.015162,0.199841,0.591124,-2.587308,-0.171086,0.252655,0.907595,-0.288386,-16.151478,1.694693,-22.616262,2,0
1352711983.084,0,0.109288,-0.396808,-0.053810,0.193962,0.590372,-2.586958,-0.168374,0.253125,0.908158,-0.287797,-16.151478,1.694693,-22.616262,2,0
1352711983.094,0,0.155037,-0.442642,-0.057628,0.189865,0.591773,-2.588037,-0.166540,0.254451,0.908443,-0.286793,-16.326536,1.712724,-22.488850,2,0
1352711983.105,0,0.164666,-0.345998,-0.035852,0.186297,0.593428,-2.588967,-0.164994,0.255803,0.908620,-0.285922,-16.326536,1.712724,-22.488850,2,0
1352711983.116,0,0.122459,-0.171998,-0.022255,0.184305,0.594750,-2.589556,-0.164167,0.256746,0.908667,-0.285403,-16.326536,1.712724,-22.488850,2,0
1352711983.127,0,0.071718,-0.010047,-0.018616,0.183660,0.597651,-2.589759,-0.164187,0.258194,0.908306,-0.285235,-16.577499,1.586053,-22.313862,2,0
1352711983.137,0,0.036894,0.090124,0.002920,0.184461,0.598073,-2.589899,-0.164582,0.258286,0.908195,-0.285275,-16.588625,1.521617,-22.310083,2,0
1352711983.148,0,0.044125,0.112995,0.021549,0.185605,0.598516,-2.589763,-0.165171,0.258316,0.908014,-0.285486,-16.588625,1.521617,-22.310083,2,0
1352711983.159,0,0.067708,0.067155,0.010249,0.185339,0.598581,-2.589063,-0.165148,0.258326,0.907926,-0.285769,-16.588625,1.521617,-22.310083,2,0
1352711983.170,0,0.060386,-0.012669,0.005793,0.185471,0.599280,-2.589159,-0.165277,0.258638,0.907822,-0.285745,-16.543211,1.513837,-22.344307,2,0
1352711983.180,0,0.016085,-0.075584,-0.007309,0.184867,0.599568,-2.589262,-0.165023,0.258865,0.907842,-0.285621,-16.543211,1.513837,-22.344307,2,0
1352711983.191,0,-0.022133,-0.098619,-0.012656,0.183909,0.599405,-2.589408,-0.164550,0.258939,0.907967,-0.285430,-16.543211,1.513837,-22.344307,2,0
1352711983.202,0,-0.065320,-0.156787,-0.012233,0.182317,0.598794,-2.589415,-0.163755,0.258885,0.908192,-0.285219,-16.599865,1.505240,-22.302834,2,0
1352711983.213,0,-0.077898,-0.103747,0.010229,0.180885,0.598004,-2.589196,-0.163040,0.258707,0.908399,-0.285132,-16.599865,1.505240,-22.302834,2,0
1352711983.223,0,-0.064562,0.006219,0.030926,0.180377,0.597339,-2.588717,-0.162794,0.258433,0.908473,-0.285283,-16.647848,1.530605,-22.265308,2,0
1352711983.234,0,-0.068496,0.105269,0.050191,0.180852,0.596777,-2.587932,-0.163045,0.258042,0.908408,-0.285700,-16.647848,1.530605,-22.265308,2,0
1352711983.245,0,-0.069664,0.137990,0.040689,0.181194,0.596500,-2.586819,-0.163311,0.257775,0.908264,-0.286249,-16.647848,1.530605,-22.265308,2,0
1352711983.256,0,-0.065820,0.090910,0.028028,0.182027,0.595870,-2.586275,-0.163686,0.257320,0.908214,-0.286602,-16.608585,1.599084,-22.289806,2,0
1352711983.266,0,-0.064534,0.014708,0.027332,0.182062,0.595256,-2.585719,-0.163701,0.256986,0.908225,-0.286858,-16.576382,1.631000,-22.311455,2,0
1352711983.277,0,-0.036013,-0.038377,0.015993,0.180787,0.593511,-2.584977,-0.163011,0.256304,0.908488,-0.287029,-16.576382,1.631000,-22.311455,2,0
1352711983.288,0,-0.005103,-0.050377,0.012397,0.180134,0.593400,-2.584766,-0.162728,0.256329,0.908528,-0.287041,-16.576382,1.631000,-22.311455,2,0
1352711983.299,0,0.027995,0.017282,0.035273,0.179923,0.593656,-2.584474,-0.162700,0.256453,0.908464,-0.287147,-16.607695,1.692676,-22.283556,2,0
1352711983.309,0,0.044696,0.147563,0.092927,0.180636,0.594202,-2.583519,-0.163211,0.256525,0.908186,-0.287673,-16.607695,1.692676,-22.283556,2,0
1352711983.320,0,0.048360,0.202000,0.093454,0.181377,0.594536,-2.582021,-0.163779,0.256450,0.907859,-0.288448,-16.607695,1.692676,-22.283556,2,0
1352711983.331,0,0.047475,0.195014,0.054186,0.183110,0.595187,-2.581273,-0.164739,0.256439,0.907509,-0.289011,-16.513121,1.718163,-22.351788,2,0
1352711983.342,0,0.026848,0.231562,0.010299,0.185337,0.595591,-2.581075,-0.165823,0.256287,0.907235,-0.289387,-16.513121,1.718163,-22.351788,2,0
1352711983.352,0,0.043062,0.373327,-0.017692,0.189068,0.595949,-2.581364,-0.167520,0.255936,0.906911,-0.289735,-16.436453,1.712914,-22.408627,2,0
1352711983.363,0,0.068924,0.610512,-0.010432,0.193956,0.596580,-2.581009,-0.169856,0.255488,0.906351,-0.290523,-16.436453,1.712914,-22.408627,2,0
1352711983.374,0,0.100411,0.932020,0.038053,0.202998,0.597673,-2.580944,-0.174088,0.254670,0.905396,-0.291711,-16.436453,1.712914,-22.408627,2,0
1352711983.385,0,0.124506,1.292252,0.081951,0.215587,0.599142,-2.580340,-0.180031,0.253451,0.903966,-0.293594,-16.035587,1.675561,-22.700001,2,0
1352711983.395,0,0.114352,1.523168,0.097496,0.231000,0.600642,-2.579490,-0.187272,0.251792,0.902191,-0.295941,-15.561418,1.649746,-23.029507,2,0
1352711983.406,0,0.047753,1.473457,0.091729,0.246644,0.601588,-2.578491,-0.194555,0.249808,0.900401,-0.298366,-15.561418,1.649746,-23.029507,2,0
1352711983.417,0,-0.030784,1.218301,0.053368,0.259994,0.601649,-2.577690,-0.200667,0.247759,0.898952,-0.300388,-15.561418,1.649746,-23.029507,2,0
1352711983.428,0,-0.117744,0.922153,-0.007472,0.270464,0.600684,-2.577238,-0.205318,0.245693,0.897975,-0.301863,-14.530329,1.665859,-23.692448,2,0
1352711983.438,0,-0.225937,0.778255,-0.051112,0.278873,0.598648,-2.577045,-0.208887,0.243464,0.897398,-0.302933,-14.530329,1.665859,-23.692448,2,0
1352711983.449,0,-0.349270,0.903952,-0.076430,0.287950,0.595142,-2.576748,-0.212602,0.240442,0.896952,-0.304080,-14.530329,1.665859,-23.692448,2,0
1352711983.460,0,-0.410334,1.127263,-0.028194,0.298988,0.590898,-2.575812,-0.217190,0.236706,0.896295,-0.305702,-13.858843,1.839478,-24.078753,2,0
1352711983.471,0,-0.360324,1.191032,0.037624,0.310787,0.587011,-2.574051,-0.222250,0.232914,0.895343,-0.307761,-13.858843,1.839478,-24.078753,2,0
1352711983.481,0,-0.197389,1.060656,0.053342,0.321779,0.584745,-2.572486,-0.227097,0.229999,0.894225,-0.309659,-13.402880,1.994227,-24.323311,2,0
1352711983.492,0,-0.055152,0.815492,0.043374,0.330742,0.584056,-2.571570,-0.231132,0.228186,0.893165,-0.311072,-13.402880,1.994227,-24.323311,2,0
1352711983.503,0,-0.069355,0.513385,-0.006052,0.336872,0.583502,-2.571211,-0.233848,0.226935,0.892484,-0.311909,-13.402880,1.994227,-24.323311,2,0
1352711983.513,0,-0.235142,0.261993,-0.092685,0.340381,0.581380,-2.571317,-0.235169,0.225424,0.892426,-0.312179,-12.723032,2.108918,-24.676193,2,0
1352711983.524,0,-0.501438,0.055968,-0.126843,0.341317,0.576592,-2.570986,-0.235099,0.223036,0.893020,-0.312248,-12.620735,2.186544,-24.721928,2,0
1352711983.535,0,-0.789227,-0.171079,-0.102528,0.339262,0.568905,-2.569238,-0.233527,0.219614,0.894190,-0.312504,-12.620735,2.186544,-24.721928,2,0
1352711983.546,0,-1.015090,-0.534592,-0.090119,0.332967,0.558797,-2.566271,-0.229903,0.215597,0.896015,-0.312760,-12.620735,2.186544,-24.721928,2,0
1352711983.556,0,-1.113099,-0.891228,-0.154036,0.322803,0.547187,-2.563458,-0.224325,0.211511,0.898488,-0.312508,-12.860981,2.797805,-24.535789,2,0
1352711983.567,0,-1.133335,-1.146037,-0.222661,0.310092,0.534998,-2.561527,-0.217398,0.207650,0.901396,-0.311617,-12.860981,2.797805,-24.535789,2,0
1352711983.578,0,-1.152575,-1.270327,-0.272925,0.296057,0.522395,-2.560302,-0.209704,0.203869,0.904526,-0.310313,-12.860981,2.797805,-24.535789,2,0
1352711983.589,0,-1.158464,-1.293109,-0.303795,0.281902,0.509519,-2.559720,-0.201810,0.200030,0.907707,-0.308754,-13.777612,3.589390,-23.927628,2,0
1352711983.599,0,-1.100639,-1.352444,-0.275815,0.267429,0.497032,-2.559389,-0.193748,0.196427,0.910800,-0.307119,-13.777612,3.589390,-23.927628,2,0
1352711983.610,0,-0.941378,-1.250206,-0.139151,0.253062,0.486280,-2.558368,-0.185973,0.193531,0.913444,-0.305909,-12.067867,1.784665,-24.744537,2,0
1352711983.621,0,-0.700603,-0.923895,0.000073,0.241265,0.478243,-2.556477,-0.179760,0.191418,0.915284,-0.305452,-12.067867,1.784665,-24.744537,2,0
1352711983.632,0,-0.298561,-0.513087,0.029603,0.233855,0.474027,-2.554960,-0.175980,0.190450,0.916254,-0.305349,-12.067867,1.784665,-24.744537,2,0
1352711983.642,0,0.238529,-0.027799,0.003055,0.232314,0.475108,-2.559114,-0.175014,0.191553,0.916883,-0.303320,-12.844563,2.331352,-24.304169,2,0
1352711983.653,0,0.852334,0.393655,-0.037082,0.236544,0.482388,-2.564202,-0.177368,0.194756,0.916340,-0.301548,-12.858249,2.232681,-24.306194,2,0
1352711983.664,0,1.265782,0.723633,-0.035177,0.245340,0.494595,-2.568046,-0.182514,0.199465,0.914521,-0.300922,-12.858249,2.232681,-24.306194,2,0
1352711983.675,0,1.437145,0.957391,-0.019719,0.257310,0.509159,-2.572653,-0.189269,0.204873,0.912130,-0.300371,-12.858249,2.232681,-24.306194,2,0
1352711983.685,0,1.423391,0.991101,-0.002353,0.270337,0.524025,-2.579359,-0.196254,0.210478,0.909809,-0.299052,-12.266176,1.238210,-24.680319,2,0
1352711983.696,0,1.313706,0.876043,-0.018787,0.282537,0.537842,-2.584045,-0.202882,0.215537,0.907312,-0.298609,-12.266176,1.238210,-24.680319,2,0
1352711983.707,0,1.160263,0.677926,-0.108528,0.293061,0.549951,-2.589326,-0.208432,0.220126,0.905240,-0.297725,-12.266176,1.238210,-24.680319,2,0
1352711983.718,0,1.010604,0.443568,-0.204713,0.301700,0.560149,-2.596963,-0.212605,0.224373,0.903937,-0.295556,-11.621428,0.201898,-25.020229,2,0
1352711983.728,0,0.811989,0.099547,-0.202983,0.306869,0.568379,-2.602840,-0.215153,0.228051,0.902999,-0.293761,-11.621428,0.201898,-25.020229,2,0
1352711983.739,0,0.489471,-0.087765,-0.163814,0.308632,0.573701,-2.607191,-0.216008,0.230725,0.902628,-0.292180,-11.531210,-0.230810,-25.061687,2,0
1352711983.750,0,0.117158,-0.124231,-0.089259,0.308526,0.575485,-2.609348,-0.215896,0.231799,0.902679,-0.291255,-11.531210,-0.230810,-25.061687,2,0
1352711983.761,0,-0.162715,-0.153357,0.004304,0.306895,0.574418,-2.609217,-0.215065,0.231529,0.903000,-0.291089,-11.531210,-0.230810,-25.061687,2,0
